%time,field.header.seq,field.header.stamp,field.header.frame_id,field.orientation.x,field.orientation.y,field.orientation.z,field.orientation.w,field.orientation_covariance0,field.orientation_covariance1,field.orientation_covariance2,field.orientation_covariance3,field.orientation_covariance4,field.orientation_covariance5,field.orientation_covariance6,field.orientation_covariance7,field.orientation_covariance8,field.angular_velocity.x,field.angular_velocity.y,field.angular_velocity.z,field.angular_velocity_covariance0,field.angular_velocity_covariance1,field.angular_velocity_covariance2,field.angular_velocity_covariance3,field.angular_velocity_covariance4,field.angular_velocity_covariance5,field.angular_velocity_covariance6,field.angular_velocity_covariance7,field.angular_velocity_covariance8,field.linear_acceleration.x,field.linear_acceleration.y,field.linear_acceleration.z,field.linear_acceleration_covariance0,field.linear_acceleration_covariance1,field.linear_acceleration_covariance2,field.linear_acceleration_covariance3,field.linear_acceleration_covariance4,field.linear_acceleration_covariance5,field.linear_acceleration_covariance6,field.linear_acceleration_covariance7,field.linear_acceleration_covariance8
93814781613,5515,93824000000,honey/imu,1.93711176416e-05,7.23994885226e-06,0.707154367833,0.707059191035,-1.0,-1.0,-1.0,-1.0,-1.0,-1.0,-1.0,-1.0,-1.0,6.83264326961e-06,3.2914252666e-05,2.53537300782e-05,0.0,0.0,0.0,0.0,0.0,0.0,0.0,0.0,0.0,-0.00118772270721,8.03423425923e-07,3.40855107978e-07,0.0,0.0,0.0,0.0,0.0,0.0,0.0,0.0,0.0
93834989358,5516,93840000000,honey/imu,1.92249602757e-05,7.4631234443e-06,0.707154513513,0.707059045337,-1.0,-1.0,-1.0,-1.0,-1.0,-1.0,-1.0,-1.0,-1.0,6.80220687622e-06,3.24917959906e-05,2.59446043271e-05,0.0,0.0,0.0,0.0,0.0,0.0,0.0,0.0,0.0,0.00110736595473,3.02510685841e-07,2.72222683149e-07,0.0,0.0,0.0,0.0,0.0,0.0,0.0,0.0,0.0
93855184761,5517,93856000000,honey/imu,1.90820917013e-05,7.68266405756e-06,0.707154663514,0.707058895317,-1.0,-1.0,-1.0,-1.0,-1.0,-1.0,-1.0,-1.0,-1.0,6.77166138243e-06,3.1879532059e-05,2.67090987677e-05,0.0,0.0,0.0,0.0,0.0,0.0,0.0,0.0,0.0,0.00113297051765,4.33558589126e-07,4.43339864255e-07,0.0,0.0,0.0,0.0,0.0,0.0,0.0,0.0,0.0
93866081109,5518,93864000000,honey/imu,1.8942797882e-05,7.89828476647e-06,0.707154818101,0.707058740711,-1.0,-1.0,-1.0,-1.0,-1.0,-1.0,-1.0,-1.0,-1.0,6.7563888377e-06,3.15730118756e-05,2.70918303661e-05,0.0,0.0,0.0,0.0,0.0,0.0,0.0,0.0,0.0,-0.00544022255062,2.95644612336e-06,2.10284032803e-06,0.0,0.0,0.0,0.0,0.0,0.0,0.0,0.0,0.0
93886290671,5519,93888000000,honey/imu,1.88075426522e-05,8.10952179655e-06,0.7071549777,0.707058581091,-1.0,-1.0,-1.0,-1.0,-1.0,-1.0,-1.0,-1.0,-1.0,6.71057035564e-06,3.0489474769e-05,2.83909893794e-05,0.0,0.0,0.0,0.0,0.0,0.0,0.0,0.0,0.0,-0.00119067352669,1.3902388611e-06,1.12352581063e-06,0.0,0.0,0.0,0.0,0.0,0.0,0.0,0.0,0.0
93896357007,5520,93904000000,honey/imu,1.86756573303e-05,8.31704313488e-06,0.707155141707,0.707058417063,-1.0,-1.0,-1.0,-1.0,-1.0,-1.0,-1.0,-1.0,-1.0,6.67991573981e-06,2.97828706007e-05,2.92438509102e-05,0.0,0.0,0.0,0.0,0.0,0.0,0.0,0.0,0.0,0.000695867392503,6.97064032313e-07,6.63402087832e-07,0.0,0.0,0.0,0.0,0.0,0.0,0.0,0.0,0.0
93916526599,5521,93920000000,honey/imu,1.85491951549e-05,8.51879456593e-06,0.707155312,0.707058246748,-1.0,-1.0,-1.0,-1.0,-1.0,-1.0,-1.0,-1.0,-1.0,6.64926111598e-06,2.86715236139e-05,3.04665762118e-05,0.0,0.0,0.0,0.0,0.0,0.0,0.0,0.0,0.0,0.000611985885264,1.23185365496e-06,1.19774363583e-06,0.0,0.0,0.0,0.0,0.0,0.0,0.0,0.0,0.0
93926588945,5522,93936000000,honey/imu,1.8430927858e-05,8.71200594186e-06,0.707155491108,0.707058067615,-1.0,-1.0,-1.0,-1.0,-1.0,-1.0,-1.0,-1.0,-1.0,6.61860648993e-06,2.70686577374e-05,3.21381527677e-05,0.0,0.0,0.0,0.0,0.0,0.0,0.0,0.0,0.0,0.000628013073879,1.55598770684e-06,1.6402666905e-06,0.0,0.0,0.0,0.0,0.0,0.0,0.0,0.0,0.0
93946886901,5523,93952000000,honey/imu,1.83216350646e-05,8.89589527443e-06,0.707155679747,0.707057878951,-1.0,-1.0,-1.0,-1.0,-1.0,-1.0,-1.0,-1.0,-1.0,6.58773370126e-06,2.56846387817e-05,3.36105150072e-05,0.0,0.0,0.0,0.0,0.0,0.0,0.0,0.0,0.0,0.000699126270232,1.31287048786e-06,1.38030832048e-06,0.0,0.0,0.0,0.0,0.0,0.0,0.0,0.0,0.0
93967075226,5524,93960000000,honey/imu,1.82688698962e-05,8.98582750683e-06,0.707155776288,0.707057782397,-1.0,-1.0,-1.0,-1.0,-1.0,-1.0,-1.0,-1.0,-1.0,6.57224276732e-06,2.52257774398e-05,3.41341187236e-05,0.0,0.0,0.0,0.0,0.0,0.0,0.0,0.0,0.0,-0.00582843128542,4.61343082161e-06,3.27427464855e-06,0.0,0.0,0.0,0.0,0.0,0.0,0.0,0.0,0.0
93977151035,5525,93976000000,honey/imu,1.81611711777e-05,9.16759719357e-06,0.707155968405,0.707057590254,-1.0,-1.0,-1.0,-1.0,-1.0,-1.0,-1.0,-1.0,-1.0,6.54126089873e-06,2.57058539912e-05,3.39066749716e-05,0.0,0.0,0.0,0.0,0.0,0.0,0.0,0.0,0.0,0.000836180417416,-7.0591971909e-07,-7.9893236061e-07,0.0,0.0,0.0,0.0,0.0,0.0,0.0,0.0,0.0
93997338555,5526,94000000000,honey/imu,1.79833752203e-05,9.45584031562e-06,0.707156244298,0.707057314323,-1.0,-1.0,-1.0,-1.0,-1.0,-1.0,-1.0,-1.0,-1.0,6.49478805e-06,2.83879544326e-05,3.17769356932e-05,0.0,0.0,0.0,0.0,0.0,0.0,0.0,0.0,0.0,-0.00136814851635,-1.04851636784e-06,-1.63420755357e-06,0.0,0.0,0.0,0.0,0.0,0.0,0.0,0.0,0.0
94007433433,5527,94016000000,honey/imu,1.78519741111e-05,9.66043307065e-06,0.707156418187,0.70705714041,-1.0,-1.0,-1.0,-1.0,-1.0,-1.0,-1.0,-1.0,-1.0,6.46380611199e-06,3.00499260292e-05,3.04732629238e-05,0.0,0.0,0.0,0.0,0.0,0.0,0.0,0.0,0.0,0.000517208658824,-1.73405182565e-06,-2.02061286699e-06,0.0,0.0,0.0,0.0,0.0,0.0,0.0,0.0,0.0
94027637151,5528,94024000000,honey/imu,1.77134293814e-05,9.87181739026e-06,0.707156586926,0.707056971648,-1.0,-1.0,-1.0,-1.0,-1.0,-1.0,-1.0,-1.0,-1.0,6.44831499789e-06,3.0753605512e-05,2.99378138646e-05,0.0,0.0,0.0,0.0,0.0,0.0,0.0,0.0,0.0,0.00693719852249,-4.49030592947e-06,-3.67475771789e-06,0.0,0.0,0.0,0.0,0.0,0.0,0.0,0.0,0.0
94047832512,5529,94048000000,honey/imu,1.75719648644e-05,1.00857687534e-05,0.707156754373,0.707056804178,-1.0,-1.0,-1.0,-1.0,-1.0,-1.0,-1.0,-1.0,-1.0,6.40162401038e-06,3.13711983137e-05,2.96953647022e-05,0.0,0.0,0.0,0.0,0.0,0.0,0.0,0.0,0.0,-0.0020518046932,8.05647887314e-07,2.01083209443e-07,0.0,0.0,0.0,0.0,0.0,0.0,0.0,0.0,0.0
94057906856,5530,94064000000,honey/imu,1.7432361867e-05,1.02975077145e-05,0.707156924889,0.707056633638,-1.0,-1.0,-1.0,-1.0,-1.0,-1.0,-1.0,-1.0,-1.0,6.37053294173e-06,3.08252498891e-05,3.04075960569e-05,0.0,0.0,0.0,0.0,0.0,0.0,0.0,0.0,0.0,0.00033517933027,7.11312594213e-07,5.93501506733e-07,0.0,0.0,0.0,0.0,0.0,0.0,0.0,0.0,0.0
94078120358,5531,94080000000,honey/imu,1.72985535206e-05,1.05030991982e-05,0.707157102064,0.707056456438,-1.0,-1.0,-1.0,-1.0,-1.0,-1.0,-1.0,-1.0,-1.0,6.33922369248e-06,2.96319069843e-05,3.17104500806e-05,0.0,0.0,0.0,0.0,0.0,0.0,0.0,0.0,0.0,0.000603947267116,1.24223648872e-06,1.24185887815e-06,0.0,0.0,0.0,0.0,0.0,0.0,0.0,0.0,0.0
94088227802,5532,94096000000,honey/imu,1.71732976388e-05,1.06997832969e-05,0.707157288413,0.707056270063,-1.0,-1.0,-1.0,-1.0,-1.0,-1.0,-1.0,-1.0,-1.0,6.30769626955e-06,2.8014470023e-05,3.34002831989e-05,0.0,0.0,0.0,0.0,0.0,0.0,0.0,0.0,0.0,0.000845265412897,1.58169907106e-06,1.6617312999e-06,0.0,0.0,0.0,0.0,0.0,0.0,0.0,0.0,0.0
94108432834,5533,94112000000,honey/imu,1.70579386297e-05,1.08862133237e-05,0.707157485166,0.707056073282,-1.0,-1.0,-1.0,-1.0,-1.0,-1.0,-1.0,-1.0,-1.0,6.2759506841e-06,2.62182142687e-05,3.52534994164e-05,0.0,0.0,0.0,0.0,0.0,0.0,0.0,0.0,0.0,0.00100444965544,1.74041602847e-06,1.83986246036e-06,0.0,0.0,0.0,0.0,0.0,0.0,0.0,0.0,0.0
94118551339,5534,94128000000,honey/imu,1.69517823567e-05,1.1063082097e-05,0.707157691692,0.707055866726,-1.0,-1.0,-1.0,-1.0,-1.0,-1.0,-1.0,-1.0,-1.0,6.24420512036e-06,2.47278779303e-05,3.68283197272e-05,0.0,0.0,0.0,0.0,0.0,0.0,0.0,0.0,0.0,0.000934086146785,1.39235926773e-06,1.47155525505e-06,0.0,0.0,0.0,0.0,0.0,0.0,0.0,0.0,0.0
94138688866,5535,94144000000,honey/imu,1.68510659059e-05,1.1234153878e-05,0.707157904565,0.707055653821,-1.0,-1.0,-1.0,-1.0,-1.0,-1.0,-1.0,-1.0,-1.0,6.212568663e-06,2.38955657569e-05,3.78039611251e-05,0.0,0.0,0.0,0.0,0.0,0.0,0.0,0.0,0.0,0.000626869010087,8.85309732312e-07,8.31136636168e-07,0.0,0.0,0.0,0.0,0.0,0.0,0.0,0.0,0.0
94158880463,5536,94160000000,honey/imu,1.67529589508e-05,1.1402257994e-05,0.70715812121,0.707055437145,-1.0,-1.0,-1.0,-1.0,-1.0,-1.0,-1.0,-1.0,-1.0,6.18082312801e-06,2.34202633661e-05,3.84548149855e-05,0.0,0.0,0.0,0.0,0.0,0.0,0.0,0.0,0.0,0.000430396360255,1.80324036953e-06,1.22770051344e-06,0.0,0.0,0.0,0.0,0.0,0.0,0.0,0.0,0.0
94168900721,5537,94176000000,honey/imu,1.66560634344e-05,1.15687898429e-05,0.707158340356,0.707055217967,-1.0,-1.0,-1.0,-1.0,-1.0,-1.0,-1.0,-1.0,-1.0,6.14885942504e-06,2.33682174979e-05,3.87200535028e-05,0.0,0.0,0.0,0.0,0.0,0.0,0.0,0.0,0.0,-0.00610099151661,4.83800105536e-06,3.01404530904e-06,0.0,0.0,0.0,0.0,0.0,0.0,0.0,0.0,0.0
94189210655,5538,94184000000,honey/imu,1.66068349649e-05,1.16527003029e-05,0.707158449741,0.707055108566,-1.0,-1.0,-1.0,-1.0,-1.0,-1.0,-1.0,-1.0,-1.0,6.13282302654e-06,2.35361847293e-05,3.86758065563e-05,0.0,0.0,0.0,0.0,0.0,0.0,0.0,0.0,0.0,0.00710698820165,-1.05222205373e-05,-6.9258560333e-06,0.0,0.0,0.0,0.0,0.0,0.0,0.0,0.0,0.0
94199268681,5539,94208000000,honey/imu,1.64463923849e-05,1.19166458835e-05,0.707158768359,0.7070547899,-1.0,-1.0,-1.0,-1.0,-1.0,-1.0,-1.0,-1.0,-1.0,6.08493195661e-06,2.59485698883e-05,3.68027246851e-05,0.0,0.0,0.0,0.0,0.0,0.0,0.0,0.0,0.0,-0.00143601997724,4.7317282296e-07,-6.0085497689e-07,0.0,0.0,0.0,0.0,0.0,0.0,0.0,0.0,0.0
94219381668,5540,94224000000,honey/imu,1.6324673867e-05,1.21068550238e-05,0.707158969055,0.707054589174,-1.0,-1.0,-1.0,-1.0,-1.0,-1.0,-1.0,-1.0,-1.0,6.04293222914e-06,2.81157257274e-05,3.50318476145e-05,0.0,0.0,0.0,0.0,0.0,0.0,0.0,0.0,0.0,0.000872658497931,-2.96002080977e-06,4.94555405226e-06,0.0,0.0,0.0,0.0,0.0,0.0,0.0,0.0,0.0
94239681587,5541,94232000000,honey/imu,1.62590822177e-05,1.22064710197e-05,0.707159065597,0.707054492617,-1.0,-1.0,-1.0,-1.0,-1.0,-1.0,-1.0,-1.0,-1.0,6.01696892989e-06,2.92051037845e-05,3.41348507327e-05,0.0,0.0,0.0,0.0,0.0,0.0,0.0,0.0,0.0,0.00746268198859,-1.36540094501e-05,-8.09308635952e-05,0.0,0.0,0.0,0.0,0.0,0.0,0.0,0.0,0.0
94249791922,5542,94256000000,honey/imu,1.60466231466e-05,1.25194033373e-05,0.707159342834,0.707054215339,-1.0,-1.0,-1.0,-1.0,-1.0,-1.0,-1.0,-1.0,-1.0,5.8677366743e-06,3.17123968263e-05,3.20471108383e-05,0.0,0.0,0.0,0.0,0.0,0.0,0.0,0.0,0.0,-0.00135212451815,1.61118448217e-06,8.60528099228e-05,0.0,0.0,0.0,0.0,0.0,0.0,0.0,0.0,0.0
94270016998,5543,94272000000,honey/imu,1.58951719346e-05,1.27341756188e-05,0.707159519867,0.707054038279,-1.0,-1.0,-1.0,-1.0,-1.0,-1.0,-1.0,-1.0,-1.0,5.39135600839e-06,3.23571934561e-05,3.1105686043e-05,0.0,0.0,0.0,0.0,0.0,0.0,0.0,0.0,0.0,0.000771111565197,-8.81897434803e-07,7.69235684176e-05,0.0,0.0,0.0,0.0,0.0,0.0,0.0,0.0,0.0
94280283132,5544,94288000000,honey/imu,1.57402744735e-05,1.29417046819e-05,0.707159693213,0.707053864907,-1.0,-1.0,-1.0,-1.0,-1.0,-1.0,-1.0,-1.0,-1.0,4.33354646171e-06,3.17377406448e-05,3.05672845679e-05,0.0,0.0,0.0,0.0,0.0,0.0,0.0,0.0,0.0,0.00061996954268,1.56407690234e-07,5.90062852185e-05,0.0,0.0,0.0,0.0,0.0,0.0,0.0,0.0,0.0
94300451368,5545,94304000000,honey/imu,1.55853418405e-05,1.31352960733e-05,0.707159865366,0.707053692728,-1.0,-1.0,-1.0,-1.0,-1.0,-1.0,-1.0,-1.0,-1.0,3.14701538529e-06,3.04675362977e-05,3.04572123637e-05,0.0,0.0,0.0,0.0,0.0,0.0,0.0,0.0,0.0,0.000366231283744,1.48001316234e-06,6.16169354675e-06,0.0,0.0,0.0,0.0,0.0,0.0,0.0,0.0,0.0
94310586804,5546,94320000000,honey/imu,1.54319954369e-05,1.33165810374e-05,0.707160038428,0.70705351964,-1.0,-1.0,-1.0,-1.0,-1.0,-1.0,-1.0,-1.0,-1.0,2.34108577616e-06,2.93649384512e-05,3.06868636705e-05,0.0,0.0,0.0,0.0,0.0,0.0,0.0,0.0,0.0,0.000136512096162,3.14870213774e-06,-4.19794676905e-05,0.0,0.0,0.0,0.0,0.0,0.0,0.0,0.0,0.0
94330781129,5547,94336000000,honey/imu,1.52792520358e-05,1.34913481465e-05,0.707160212418,0.707053345623,-1.0,-1.0,-1.0,-1.0,-1.0,-1.0,-1.0,-1.0,-1.0,1.81790737156e-06,2.89582666104e-05,3.06477548621e-05,0.0,0.0,0.0,0.0,0.0,0.0,0.0,0.0,0.0,5.27052029099e-05,2.85659128523e-06,-1.94474514443e-05,0.0,0.0,0.0,0.0,0.0,0.0,0.0,0.0,0.0
94351043073,5548,94352000000,honey/imu,1.51235825496e-05,1.36611298507e-05,0.707160383744,0.707053174272,-1.0,-1.0,-1.0,-1.0,-1.0,-1.0,-1.0,-1.0,-1.0,9.43144489001e-07,2.85556127183e-05,3.01512312839e-05,0.0,0.0,0.0,0.0,0.0,0.0,0.0,0.0,0.0,0.000137295683621,4.45541055641e-06,-9.31220408724e-06,0.0,0.0,0.0,0.0,0.0,0.0,0.0,0.0,0.0
94361121800,5549,94368000000,honey/imu,1.496681592e-05,1.38154910482e-05,0.707160552439,0.707053005551,-1.0,-1.0,-1.0,-1.0,-1.0,-1.0,-1.0,-1.0,-1.0,-7.51291289901e-07,2.68677868605e-05,2.97685309149e-05,0.0,0.0,0.0,0.0,0.0,0.0,0.0,0.0,0.0,-0.00300503161262,-1.05859181336e-05,-0.000138388589743,0.0,0.0,0.0,0.0,0.0,0.0,0.0,0.0,0.0
94381291404,5550,94384000000,honey/imu,1.48133154878e-05,1.3939930523e-05,0.707160720562,0.707052837404,-1.0,-1.0,-1.0,-1.0,-1.0,-1.0,-1.0,-1.0,-1.0,-3.30063471395e-06,2.35329335589e-05,2.9784309913e-05,0.0,0.0,0.0,0.0,0.0,0.0,0.0,0.0,0.0,0.000408871983264,5.46081513673e-07,4.5129625736e-05,0.0,0.0,0.0,0.0,0.0,0.0,0.0,0.0,0.0
94391382999,5551,94400000000,honey/imu,1.46675215295e-05,1.40221210967e-05,0.707160890666,0.707052667275,-1.0,-1.0,-1.0,-1.0,-1.0,-1.0,-1.0,-1.0,-1.0,-6.47209598622e-06,1.88405309289e-05,3.02353001375e-05,0.0,0.0,0.0,0.0,0.0,0.0,0.0,0.0,0.0,0.000497577353288,1.33985941254e-06,5.58165515679e-05,0.0,0.0,0.0,0.0,0.0,0.0,0.0,0.0,0.0
94411531957,5552,94416000000,honey/imu,1.45326321853e-05,1.40543292931e-05,0.707161064811,0.707052493106,-1.0,-1.0,-1.0,-1.0,-1.0,-1.0,-1.0,-1.0,-1.0,-9.9735424819e-06,1.33244293909e-05,3.10118916206e-05,0.0,0.0,0.0,0.0,0.0,0.0,0.0,0.0,0.0,0.000539575846916,1.74259373513e-06,6.1598000003e-05,0.0,0.0,0.0,0.0,0.0,0.0,0.0,0.0,0.0
94431685447,5553,94432000000,honey/imu,1.44101429186e-05,1.40334395576e-05,0.707161244055,0.707052313837,-1.0,-1.0,-1.0,-1.0,-1.0,-1.0,-1.0,-1.0,-1.0,-1.35733843738e-05,7.5319577154e-06,3.1913990235e-05,0.0,0.0,0.0,0.0,0.0,0.0,0.0,0.0,0.0,0.000550397993538,1.63479581949e-06,6.33412237772e-05,0.0,0.0,0.0,0.0,0.0,0.0,0.0,0.0,0.0
94441850031,5554,94448000000,honey/imu,1.42997923845e-05,1.3961262594e-05,0.707161428458,0.707052129409,-1.0,-1.0,-1.0,-1.0,-1.0,-1.0,-1.0,-1.0,-1.0,-1.6890583894e-05,2.11977791115e-06,3.28350665725e-05,0.0,0.0,0.0,0.0,0.0,0.0,0.0,0.0,0.0,0.000542214183182,6.55796618398e-07,6.80838826735e-05,0.0,0.0,0.0,0.0,0.0,0.0,0.0,0.0,0.0
94462124718,5555,94456000000,honey/imu,1.42000618357e-05,1.38471878519e-05,0.707161618135,0.707051939707,-1.0,-1.0,-1.0,-1.0,-1.0,-1.0,-1.0,-1.0,-1.0,-1.84056803234e-05,-3.92661034794e-07,3.33045481387e-05,0.0,0.0,0.0,0.0,0.0,0.0,0.0,0.0,0.0,-0.00601156657705,2.10852739587e-05,-0.000551180123578,0.0,0.0,0.0,0.0,0.0,0.0,0.0,0.0,0.0
94472367772,5556,94480000000,honey/imu,1.41082681858e-05,1.37058611184e-05,0.707161812912,0.707051744904,-1.0,-1.0,-1.0,-1.0,-1.0,-1.0,-1.0,-1.0,-1.0,-2.08360098194e-05,-4.86679996442e-06,3.46522533957e-05,0.0,0.0,0.0,0.0,0.0,0.0,0.0,0.0,0.0,-0.00166015123103,2.45683528378e-06,-0.000237947545696,0.0,0.0,0.0,0.0,0.0,0.0,0.0,0.0,0.0
94482452931,5557,94488000000,honey/imu,1.40645812714e-05,1.3629075867e-05,0.707161912148,0.707051645655,-1.0,-1.0,-1.0,-1.0,-1.0,-1.0,-1.0,-1.0,-1.0,-2.12971166238e-05,-5.84866703029e-06,3.50878156927e-05,0.0,0.0,0.0,0.0,0.0,0.0,0.0,0.0,0.0,0.00700881581756,-3.67909722196e-06,0.00100368109877,0.0,0.0,0.0,0.0,0.0,0.0,0.0,0.0,0.0
94502670256,5558,94504000000,honey/imu,1.39801212062e-05,1.34711796606e-05,0.707162114165,0.707051443612,-1.0,-1.0,-1.0,-1.0,-1.0,-1.0,-1.0,-1.0,-1.0,-2.14635816607e-05,-6.70181708477e-06,3.59230437958e-05,0.0,0.0,0.0,0.0,0.0,0.0,0.0,0.0,0.0,0.000491908303518,6.47435733002e-07,8.01543391506e-05,0.0,0.0,0.0,0.0,0.0,0.0,0.0,0.0,0.0
94522826759,5559,94528000000,honey/imu,1.38586152883e-05,1.323330988e-05,0.707162425599,0.707051132135,-1.0,-1.0,-1.0,-1.0,-1.0,-1.0,-1.0,-1.0,-1.0,-2.09332044334e-05,-6.73943410291e-06,3.70521821874e-05,0.0,0.0,0.0,0.0,0.0,0.0,0.0,0.0,0.0,-0.00172381043498,1.98472784493e-06,-0.000262235582057,0.0,0.0,0.0,0.0,0.0,0.0,0.0,0.0,0.0
94542974101,5560,94544000000,honey/imu,1.37794964089e-05,1.30778381059e-05,0.707162637824,0.707050919881,-1.0,-1.0,-1.0,-1.0,-1.0,-1.0,-1.0,-1.0,-1.0,-2.08486623025e-05,-6.9958215232e-06,3.76691858391e-05,0.0,0.0,0.0,0.0,0.0,0.0,0.0,0.0,0.0,0.000331841034201,3.55570864503e-07,4.4905091433e-05,0.0,0.0,0.0,0.0,0.0,0.0,0.0,0.0,0.0
94553036638,5561,94560000000,honey/imu,1.37037308239e-05,1.29127241268e-05,0.707162853465,0.70705070421,-1.0,-1.0,-1.0,-1.0,-1.0,-1.0,-1.0,-1.0,-1.0,-2.15083054969e-05,-8.29514866039e-06,3.82768597515e-05,0.0,0.0,0.0,0.0,0.0,0.0,0.0,0.0,0.0,0.000315708556424,7.88028100137e-07,3.72489641017e-05,0.0,0.0,0.0,0.0,0.0,0.0,0.0,0.0,0.0
94573149259,5562,94576000000,honey/imu,1.36327790061e-05,1.27343252512e-05,0.707163073444,0.707050484202,-1.0,-1.0,-1.0,-1.0,-1.0,-1.0,-1.0,-1.0,-1.0,-2.21390407762e-05,-9.89363228008e-06,3.91954356651e-05,0.0,0.0,0.0,0.0,0.0,0.0,0.0,0.0,0.0,0.00032147987824,1.12987102697e-06,3.5415121646e-05,0.0,0.0,0.0,0.0,0.0,0.0,0.0,0.0,0.0
94583210448,5563,94592000000,honey/imu,1.35682719529e-05,1.25460401968e-05,0.707163300206,0.707050257408,-1.0,-1.0,-1.0,-1.0,-1.0,-1.0,-1.0,-1.0,-1.0,-2.23531761226e-05,-1.11842928608e-05,4.03721249073e-05,0.0,0.0,0.0,0.0,0.0,0.0,0.0,0.0,0.0,0.000285430622831,1.20608675852e-06,4.13107965479e-05,0.0,0.0,0.0,0.0,0.0,0.0,0.0,0.0,0.0
94603377832,5564,94608000000,honey/imu,1.35077721966e-05,1.2353365308e-05,0.707163532114,0.707050025467,-1.0,-1.0,-1.0,-1.0,-1.0,-1.0,-1.0,-1.0,-1.0,-2.23871011374e-05,-1.16835262662e-05,4.10604600672e-05,0.0,0.0,0.0,0.0,0.0,0.0,0.0,0.0,0.0,0.000218479050271,7.30806419005e-07,5.20241156689e-05,0.0,0.0,0.0,0.0,0.0,0.0,0.0,0.0,0.0
94623624921,5565,94616000000,honey/imu,1.3445902269e-05,1.21616753493e-05,0.707163764269,0.70704979328,-1.0,-1.0,-1.0,-1.0,-1.0,-1.0,-1.0,-1.0,-1.0,-2.24041182931e-05,-1.16901873786e-05,4.11831579763e-05,0.0,0.0,0.0,0.0,0.0,0.0,0.0,0.0,0.0,-0.00633921217844,1.21227652594e-05,-9.76747732993e-05,0.0,0.0,0.0,0.0,0.0,0.0,0.0,0.0,0.0
94633760124,5566,94640000000,honey/imu,1.33773024088e-05,1.19763292255e-05,0.707163991784,0.707049565732,-1.0,-1.0,-1.0,-1.0,-1.0,-1.0,-1.0,-1.0,-1.0,-2.24551693377e-05,-9.81539137264e-06,3.98239520559e-05,0.0,0.0,0.0,0.0,0.0,0.0,0.0,0.0,0.0,0.00244779170689,-5.56752327198e-06,3.32232877793e-05,0.0,0.0,0.0,0.0,0.0,0.0,0.0,0.0,0.0
94654019567,5567,94656000000,honey/imu,1.32962793194e-05,1.18030187009e-05,0.707164209471,0.707049348014,-1.0,-1.0,-1.0,-1.0,-1.0,-1.0,-1.0,-1.0,-1.0,-2.24893126844e-05,-7.49601997238e-06,3.794283501e-05,0.0,0.0,0.0,0.0,0.0,0.0,0.0,0.0,0.0,0.000291962646473,-2.62374964783e-06,-1.30775891816e-06,0.0,0.0,0.0,0.0,0.0,0.0,0.0,0.0,0.0
94664294069,5568,94672000000,honey/imu,1.31998149455e-05,1.1644759487e-05,0.707164414581,0.707049142875,-1.0,-1.0,-1.0,-1.0,-1.0,-1.0,-1.0,-1.0,-1.0,-2.25235652997e-05,-4.74013318889e-06,3.5664054886e-05,0.0,0.0,0.0,0.0,0.0,0.0,0.0,0.0,0.0,0.000320006426751,-3.11578410426e-06,-1.64288236436e-06,0.0,0.0,0.0,0.0,0.0,0.0,0.0,0.0,0.0
94684427156,5569,94688000000,honey/imu,1.30869064492e-05,1.15025536338e-05,0.707164606203,0.707048951226,-1.0,-1.0,-1.0,-1.0,-1.0,-1.0,-1.0,-1.0,-1.0,-2.25579271891e-05,-1.87276714665e-06,3.32841157504e-05,0.0,0.0,0.0,0.0,0.0,0.0,0.0,0.0,0.0,0.000338677798326,-3.27053982939e-06,-1.48060449932e-06,0.0,0.0,0.0,0.0,0.0,0.0,0.0,0.0,0.0
94694486667,5570,94704000000,honey/imu,1.29593820119e-05,1.13745713939e-05,0.707164786008,0.707048771396,-1.0,-1.0,-1.0,-1.0,-1.0,-1.0,-1.0,-1.0,-1.0,-2.25923983338e-05,3.67948270239e-07,3.14763224204e-05,0.0,0.0,0.0,0.0,0.0,0.0,0.0,0.0,0.0,0.000355516764586,-2.65806717861e-06,-2.93088792176e-07,0.0,0.0,0.0,0.0,0.0,0.0,0.0,0.0,0.0
94714607456,5571,94720000000,honey/imu,1.28243647029e-05,1.12536908434e-05,0.707164960495,0.707048596885,-1.0,-1.0,-1.0,-1.0,-1.0,-1.0,-1.0,-1.0,-1.0,-2.26268695806e-05,1.32384760276e-06,3.08410291863e-05,0.0,0.0,0.0,0.0,0.0,0.0,0.0,0.0,0.0,0.000375961055972,-1.40734929601e-06,2.15674030271e-06,0.0,0.0,0.0,0.0,0.0,0.0,0.0,0.0,0.0
94734824882,5572,94736000000,honey/imu,1.26889382184e-05,1.11328288161e-05,0.707165136128,0.707048421227,-1.0,-1.0,-1.0,-1.0,-1.0,-1.0,-1.0,-1.0,-1.0,-2.26614499447e-05,1.11172086193e-06,3.12717079147e-05,0.0,0.0,0.0,0.0,0.0,0.0,0.0,0.0,0.0,0.000393814210034,-3.91607926332e-07,5.8010637896e-06,0.0,0.0,0.0,0.0,0.0,0.0,0.0,0.0,0.0
94744883874,5573,94752000000,honey/imu,1.25584228563e-05,1.10066640302e-05,0.707165317763,0.707048239567,-1.0,-1.0,-1.0,-1.0,-1.0,-1.0,-1.0,-1.0,-1.0,-2.26961393725e-05,1.81861268375e-08,3.25069272618e-05,0.0,0.0,0.0,0.0,0.0,0.0,0.0,0.0,0.0,0.000404122518571,-1.75642313633e-07,1.52376573259e-05,0.0,0.0,0.0,0.0,0.0,0.0,0.0,0.0,0.0
94765084384,5574,94768000000,honey/imu,1.24365977108e-05,1.08714173958e-05,0.707165508849,0.707048048453,-1.0,-1.0,-1.0,-1.0,-1.0,-1.0,-1.0,-1.0,-1.0,-2.27309378191e-05,-1.64836988577e-06,3.42653992175e-05,0.0,0.0,0.0,0.0,0.0,0.0,0.0,0.0,0.0,-0.00288003127406,8.49909425934e-06,-3.44616193647e-05,0.0,0.0,0.0,0.0,0.0,0.0,0.0,0.0,0.0
94775207424,5575,94784000000,honey/imu,1.23253310283e-05,1.07252191274e-05,0.707165711094,0.707047846178,-1.0,-1.0,-1.0,-1.0,-1.0,-1.0,-1.0,-1.0,-1.0,-2.27658452502e-05,-3.59274043332e-06,3.62778504546e-05,0.0,0.0,0.0,0.0,0.0,0.0,0.0,0.0,0.0,0.000406448012179,2.02309987671e-06,-1.52445870979e-07,0.0,0.0,0.0,0.0,0.0,0.0,0.0,0.0,0.0
94795405452,5576,94800000000,honey/imu,1.22239637363e-05,1.05687275786e-05,0.707165923902,0.707047633339,-1.0,-1.0,-1.0,-1.0,-1.0,-1.0,-1.0,-1.0,-1.0,-2.28008616402e-05,-5.13156873973e-06,3.79209568403e-05,0.0,0.0,0.0,0.0,0.0,0.0,0.0,0.0,0.0,0.000397851958053,1.57394453546e-06,-2.88255113857e-07,0.0,0.0,0.0,0.0,0.0,0.0,0.0,0.0,0.0
94815640064,5577,94816000000,honey/imu,1.21271558144e-05,1.04072806603e-05,0.707166142405,0.707047414803,-1.0,-1.0,-1.0,-1.0,-1.0,-1.0,-1.0,-1.0,-1.0,-2.283587794e-05,-5.7665566085e-06,3.87402874437e-05,0.0,0.0,0.0,0.0,0.0,0.0,0.0,0.0,0.0,0.000328273084517,6.4200493975e-07,-1.32222100289e-06,0.0,0.0,0.0,0.0,0.0,0.0,0.0,0.0,0.0
94825708548,5578,94832000000,honey/imu,1.20313374091e-05,1.0244448872e-05,0.707166363353,0.707047193823,-1.0,-1.0,-1.0,-1.0,-1.0,-1.0,-1.0,-1.0,-1.0,-2.2870894207e-05,-5.9632554421e-06,3.9160511639e-05,0.0,0.0,0.0,0.0,0.0,0.0,0.0,0.0,0.0,0.000254932767363,2.73016905588e-07,-1.3414053673e-06,0.0,0.0,0.0,0.0,0.0,0.0,0.0,0.0,0.0
94845884928,5579,94848000000,honey/imu,1.1936858283e-05,1.0079880659e-05,0.707166587067,0.707046970075,-1.0,-1.0,-1.0,-1.0,-1.0,-1.0,-1.0,-1.0,-1.0,-2.29060195444e-05,-6.33656696446e-06,3.97424039855e-05,0.0,0.0,0.0,0.0,0.0,0.0,0.0,0.0,0.0,0.000254997226154,5.11119915428e-07,-1.17483744627e-06,0.0,0.0,0.0,0.0,0.0,0.0,0.0,0.0,0.0
94856148999,5580,94864000000,honey/imu,1.18454077719e-05,9.91188635099e-06,0.707166815092,0.707046742015,-1.0,-1.0,-1.0,-1.0,-1.0,-1.0,-1.0,-1.0,-1.0,-2.29412539301e-05,-6.90133649644e-06,4.04995329628e-05,0.0,0.0,0.0,0.0,0.0,0.0,0.0,0.0,0.0,0.000238988626044,7.54760341845e-07,-1.42771639304e-06,0.0,0.0,0.0,0.0,0.0,0.0,0.0,0.0,0.0
94876356778,5581,94880000000,honey/imu,1.17567027205e-05,9.7407472069e-06,0.707167047175,0.707046509896,-1.0,-1.0,-1.0,-1.0,-1.0,-1.0,-1.0,-1.0,-1.0,-2.29765973567e-05,-7.38927946899e-06,4.11872738846e-05,0.0,0.0,0.0,0.0,0.0,0.0,0.0,0.0,0.0,0.000165106083578,8.17716111933e-07,-1.40553528223e-06,0.0,0.0,0.0,0.0,0.0,0.0,0.0,0.0,0.0
94886490832,5582,94896000000,honey/imu,1.16685128229e-05,9.56738690649e-06,0.707167280442,0.707046276593,-1.0,-1.0,-1.0,-1.0,-1.0,-1.0,-1.0,-1.0,-1.0,-2.32428760174e-05,-7.45037317537e-06,4.09775159309e-05,0.0,0.0,0.0,0.0,0.0,0.0,0.0,0.0,0.0,0.00012312941045,5.59677374119e-06,-7.58229047938e-07,0.0,0.0,0.0,0.0,0.0,0.0,0.0,0.0,0.0
94906676073,5583,94912000000,honey/imu,1.15751335901e-05,9.39342917547e-06,0.707167507061,0.70704604994,-1.0,-1.0,-1.0,-1.0,-1.0,-1.0,-1.0,-1.0,-1.0,-2.37685614385e-05,-6.93898177885e-06,3.96746682358e-05,0.0,0.0,0.0,0.0,0.0,0.0,0.0,0.0,0.0,0.000115038941118,-1.02721992783e-05,-1.33999149007e-06,0.0,0.0,0.0,0.0,0.0,0.0,0.0,0.0,0.0
94926927236,5584,94928000000,honey/imu,1.14728378826e-05,9.22043474733e-06,0.707167722238,0.707045834729,-1.0,-1.0,-1.0,-1.0,-1.0,-1.0,-1.0,-1.0,-1.0,-2.4620196182e-05,-5.91478666376e-06,3.71869329069e-05,0.0,0.0,0.0,0.0,0.0,0.0,0.0,0.0,0.0,0.000124379959864,-1.06442109031e-05,-1.27614842969e-06,0.0,0.0,0.0,0.0,0.0,0.0,0.0,0.0,0.0
94936996723,5585,94944000000,honey/imu,1.13546423231e-05,9.04836154675e-06,0.707167915078,0.70704564186,-1.0,-1.0,-1.0,-1.0,-1.0,-1.0,-1.0,-1.0,-1.0,-2.61187115979e-05,-4.26710904971e-06,3.27064576304e-05,0.0,0.0,0.0,0.0,0.0,0.0,0.0,0.0,0.0,0.00018420553835,-4.60049754881e-05,-2.33721875615e-06,0.0,0.0,0.0,0.0,0.0,0.0,0.0,0.0,0.0
94957229778,5586,94960000000,honey/imu,1.12134072481e-05,8.87685296201e-06,0.707168074235,0.70704548268,-1.0,-1.0,-1.0,-1.0,-1.0,-1.0,-1.0,-1.0,-1.0,-2.82434904493e-05,-2.06362215189e-06,2.63401039858e-05,0.0,0.0,0.0,0.0,0.0,0.0,0.0,0.0,0.0,0.000249156892895,-0.000179583315537,-7.06872758683e-06,0.0,0.0,0.0,0.0,0.0,0.0,0.0,0.0,0.0
94967356686,5587,94976000000,honey/imu,1.10459329086e-05,8.70349075686e-06,0.70716819317,0.707045363729,-1.0,-1.0,-1.0,-1.0,-1.0,-1.0,-1.0,-1.0,-1.0,-3.08076682442e-05,-1.90208732445e-07,1.93073843252e-05,0.0,0.0,0.0,0.0,0.0,0.0,0.0,0.0,0.0,-0.00296510926584,0.000296003894597,3.4609639352e-05,0.0,0.0,0.0,0.0,0.0,0.0,0.0,0.0,0.0
94987554267,5588,94992000000,honey/imu,1.08571996188e-05,8.5202016775e-06,0.70716827443,0.70704528246,-1.0,-1.0,-1.0,-1.0,-1.0,-1.0,-1.0,-1.0,-1.0,-3.35937272288e-05,5.04132714571e-07,1.28618707848e-05,0.0,0.0,0.0,0.0,0.0,0.0,0.0,0.0,0.0,0.000299415969315,0.000113605083472,5.38361679433e-06,0.0,0.0,0.0,0.0,0.0,0.0,0.0,0.0,0.0
95007738525,5589,95008000000,honey/imu,1.06538780977e-05,8.31929495974e-06,0.707168323442,0.707045233445,-1.0,-1.0,-1.0,-1.0,-1.0,-1.0,-1.0,-1.0,-1.0,-3.64416380386e-05,-1.10541710026e-07,7.47471217963e-06,0.0,0.0,0.0,0.0,0.0,0.0,0.0,0.0,0.0,0.000307899519559,0.000106502819635,6.55769787475e-06,0.0,0.0,0.0,0.0,0.0,0.0,0.0,0.0,0.0
95027948951,5590,95032000000,honey/imu,1.03327784705e-05,7.97357412549e-06,0.707168346687,0.707045210205,-1.0,-1.0,-1.0,-1.0,-1.0,-1.0,-1.0,-1.0,-1.0,-4.07197766824e-05,-2.15775050787e-06,4.07270799024e-07,0.0,0.0,0.0,0.0,0.0,0.0,0.0,0.0,0.0,-0.00174479650961,-0.000699403164263,-5.42843006486e-06,0.0,0.0,0.0,0.0,0.0,0.0,0.0,0.0,0.0
95048288871,5591,95056000000,honey/imu,9.99686377323e-06,7.57245221885e-06,0.707168315264,0.707045241643,-1.0,-1.0,-1.0,-1.0,-1.0,-1.0,-1.0,-1.0,-1.0,-4.45626618125e-05,-4.59061946395e-06,-5.34811800495e-06,0.0,0.0,0.0,0.0,0.0,0.0,0.0,0.0,0.0,0.00226735882666,0.00089121123148,1.99561355857e-05,0.0,0.0,0.0,0.0,0.0,0.0,0.0,0.0,0.0
95068542259,5592,95064000000,honey/imu,9.88299761185e-06,7.42867540201e-06,0.707168296266,0.707045260647,-1.0,-1.0,-1.0,-1.0,-1.0,-1.0,-1.0,-1.0,-1.0,-4.55457457615e-05,-5.28362663021e-06,-6.71781702488e-06,0.0,0.0,0.0,0.0,0.0,0.0,0.0,0.0,0.0,-0.00595240535318,-0.00232426150618,-3.16034712531e-05,0.0,0.0,0.0,0.0,0.0,0.0,0.0,0.0,0.0
95078677335,5593,95088000000,honey/imu,9.54167757472e-06,6.98463001104e-06,0.707168234282,0.707045322651,-1.0,-1.0,-1.0,-1.0,-1.0,-1.0,-1.0,-1.0,-1.0,-4.6436052063e-05,-6.31357825494e-06,-7.24733897311e-06,0.0,0.0,0.0,0.0,0.0,0.0,0.0,0.0,0.0,0.00209279651575,0.000827661694739,1.49436508532e-05,0.0,0.0,0.0,0.0,0.0,0.0,0.0,0.0,0.0
95098810665,5594,95104000000,honey/imu,9.31478345462e-06,6.68586018014e-06,0.707168194529,0.707045362416,-1.0,-1.0,-1.0,-1.0,-1.0,-1.0,-1.0,-1.0,-1.0,-4.64721596366e-05,-6.19904648615e-06,-7.10281128452e-06,0.0,0.0,0.0,0.0,0.0,0.0,0.0,0.0,0.0,3.18202225178e-05,3.46495218472e-06,2.31688142637e-08,0.0,0.0,0.0,0.0,0.0,0.0,0.0,0.0,0.0
95118957107,5595,95120000000,honey/imu,9.08386328416e-06,6.39070707874e-06,0.707168152701,0.707045404258,-1.0,-1.0,-1.0,-1.0,-1.0,-1.0,-1.0,-1.0,-1.0,-4.65082944782e-05,-5.4478742588e-06,-7.53881948147e-06,0.0,0.0,0.0,0.0,0.0,0.0,0.0,0.0,0.0,5.21045218414e-05,2.28818504847e-05,-3.69459408255e-07,0.0,0.0,0.0,0.0,0.0,0.0,0.0,0.0,0.0
95129012877,5596,95136000000,honey/imu,8.84613284023e-06,6.10066656317e-06,0.707168105427,0.707045451546,-1.0,-1.0,-1.0,-1.0,-1.0,-1.0,-1.0,-1.0,-1.0,-4.67720647326e-05,-4.24263880619e-06,-8.89016324236e-06,0.0,0.0,0.0,0.0,0.0,0.0,0.0,0.0,0.0,9.59124267647e-05,3.19641297293e-05,-4.44188824252e-07,0.0,0.0,0.0,0.0,0.0,0.0,0.0,0.0,0.0
95149194721,5597,95152000000,honey/imu,8.59502011417e-06,5.81597186656e-06,0.707168042626,0.707045514363,-1.0,-1.0,-1.0,-1.0,-1.0,-1.0,-1.0,-1.0,-1.0,-4.7701069287e-05,-2.43989922528e-06,-1.22517811867e-05,0.0,0.0,0.0,0.0,0.0,0.0,0.0,0.0,0.0,0.000174112692672,7.65550888146e-05,6.84890560497e-07,0.0,0.0,0.0,0.0,0.0,0.0,0.0,0.0,0.0
95159305433,5598,95168000000,honey/imu,8.32260931275e-06,5.53487815878e-06,0.707167950843,0.707045606167,-1.0,-1.0,-1.0,-1.0,-1.0,-1.0,-1.0,-1.0,-1.0,-4.94625098485e-05,-1.35619759824e-07,-1.79045085532e-05,0.0,0.0,0.0,0.0,0.0,0.0,0.0,0.0,0.0,0.000241884261723,0.00013982739235,2.91027390941e-06,0.0,0.0,0.0,0.0,0.0,0.0,0.0,0.0,0.0
95179472881,5599,95184000000,honey/imu,8.0227633228e-06,5.2553431036e-06,0.707167819206,0.707045737833,-1.0,-1.0,-1.0,-1.0,-1.0,-1.0,-1.0,-1.0,-1.0,-5.1880212326e-05,2.47897599965e-06,-2.52857744714e-05,0.0,0.0,0.0,0.0,0.0,0.0,0.0,0.0,0.0,0.000253808225189,0.000252859750225,6.95341199413e-06,0.0,0.0,0.0,0.0,0.0,0.0,0.0,0.0,0.0
95199588406,5600,95200000000,honey/imu,7.69198271957e-06,4.97574882374e-06,0.70716764122,0.707045915855,-1.0,-1.0,-1.0,-1.0,-1.0,-1.0,-1.0,-1.0,-1.0,-5.46796069397e-05,5.21925010834e-06,-3.36222858991e-05,0.0,0.0,0.0,0.0,0.0,0.0,0.0,0.0,0.0,-1.76985215346e-05,0.000693035412741,2.25383556267e-05,0.0,0.0,0.0,0.0,0.0,0.0,0.0,0.0,0.0
95209641877,5601,95208000000,honey/imu,7.33065256431e-06,4.69358234836e-06,0.707167415864,0.707046141255,-1.0,-1.0,-1.0,-1.0,-1.0,-1.0,-1.0,-1.0,-1.0,-5.61394242091e-05,6.6004760565e-06,-3.79330370138e-05,0.0,0.0,0.0,0.0,0.0,0.0,0.0,0.0,0.0,-0.00488948439037,-0.00386405985642,-8.77852726273e-05,0.0,0.0,0.0,0.0,0.0,0.0,0.0,0.0,0.0
95229818519,5602,95232000000,honey/imu,6.94637698886e-06,4.40097149597e-06,0.707167149902,0.707046407269,-1.0,-1.0,-1.0,-1.0,-1.0,-1.0,-1.0,-1.0,-1.0,-6.0566491934e-05,8.00833679918e-06,-4.84742218829e-05,0.0,0.0,0.0,0.0,0.0,0.0,0.0,0.0,0.0,-0.00182812841437,-8.97896399737e-05,1.1989610571e-05,0.0,0.0,0.0,0.0,0.0,0.0,0.0,0.0,0.0
95239912323,5603,95248000000,honey/imu,6.54975718728e-06,4.08729124195e-06,0.707166852986,0.707046704242,-1.0,-1.0,-1.0,-1.0,-1.0,-1.0,-1.0,-1.0,-1.0,-6.35204883184e-05,6.86029544927e-06,-5.36038834907e-05,0.0,0.0,0.0,0.0,0.0,0.0,0.0,0.0,0.0,0.000328929551559,-3.106091878e-05,3.14183787553e-06,0.0,0.0,0.0,0.0,0.0,0.0,0.0,0.0,0.0
95260025583,5604,95264000000,honey/imu,6.14856117053e-06,3.74501643042e-06,0.707166532356,0.707047024931,-1.0,-1.0,-1.0,-1.0,-1.0,-1.0,-1.0,-1.0,-1.0,-6.64295958483e-05,4.51697998934e-06,-5.75442202313e-05,0.0,0.0,0.0,0.0,0.0,0.0,0.0,0.0,0.0,0.000300044959563,6.18027090898e-07,5.51755862078e-06,0.0,0.0,0.0,0.0,0.0,0.0,0.0,0.0,0.0
95270082890,5605,95280000000,honey/imu,5.74755174984e-06,3.37051527163e-06,0.707166193087,0.707047364263,-1.0,-1.0,-1.0,-1.0,-1.0,-1.0,-1.0,-1.0,-1.0,-6.92308447044e-05,1.57205769498e-06,-6.06980228203e-05,0.0,0.0,0.0,0.0,0.0,0.0,0.0,0.0,0.0,0.000281704685165,1.50330791825e-05,6.47694163922e-06,0.0,0.0,0.0,0.0,0.0,0.0,0.0,0.0,0.0
95290189385,5606,95296000000,honey/imu,5.3472738966e-06,2.96456963659e-06,0.707165836533,0.707047720881,-1.0,-1.0,-1.0,-1.0,-1.0,-1.0,-1.0,-1.0,-1.0,-7.19212896406e-05,-1.01015367539e-06,-6.39384543181e-05,0.0,0.0,0.0,0.0,0.0,0.0,0.0,0.0,0.0,0.000280192463419,2.24914734283e-05,6.09473000293e-06,0.0,0.0,0.0,0.0,0.0,0.0,0.0,0.0,0.0
95310303298,5607,95312000000,honey/imu,4.94108830684e-06,2.53480813475e-06,0.707165457279,0.707048100203,-1.0,-1.0,-1.0,-1.0,-1.0,-1.0,-1.0,-1.0,-1.0,-7.45344882247e-05,-2.11642550034e-06,-6.83549279142e-05,0.0,0.0,0.0,0.0,0.0,0.0,0.0,0.0,0.0,0.000296919255469,2.68303670619e-05,4.34078163563e-06,0.0,0.0,0.0,0.0,0.0,0.0,0.0,0.0,0.0
95320357580,5608,95328000000,honey/imu,4.52043254163e-06,2.09267318329e-06,0.707165049376,0.707048508178,-1.0,-1.0,-1.0,-1.0,-1.0,-1.0,-1.0,-1.0,-1.0,-7.6694925036e-05,-1.59196573732e-06,-7.32613762151e-05,0.0,0.0,0.0,0.0,0.0,0.0,0.0,0.0,0.0,0.000272067556488,2.02894260872e-05,1.74924931567e-06,0.0,0.0,0.0,0.0,0.0,0.0,0.0,0.0,0.0
95340677044,5609,95344000000,honey/imu,4.08361224915e-06,1.647551476e-06,0.707164616245,0.707048941384,-1.0,-1.0,-1.0,-1.0,-1.0,-1.0,-1.0,-1.0,-1.0,-7.83442524747e-05,-4.6459234623e-07,-7.7591742015e-05,0.0,0.0,0.0,0.0,0.0,0.0,0.0,0.0,0.0,0.000236041128301,1.91019757103e-05,4.95809226695e-07,0.0,0.0,0.0,0.0,0.0,0.0,0.0,0.0,0.0
95350805340,5610,95360000000,honey/imu,3.63417825306e-06,1.19917260339e-06,0.707164163241,0.707049394465,-1.0,-1.0,-1.0,-1.0,-1.0,-1.0,-1.0,-1.0,-1.0,-7.9587070432e-05,1.3726627748e-07,-8.05472063762e-05,0.0,0.0,0.0,0.0,0.0,0.0,0.0,0.0,0.0,0.000263742842255,2.78355608848e-05,4.31314297979e-07,0.0,0.0,0.0,0.0,0.0,0.0,0.0,0.0,0.0
95370980357,5611,95368000000,honey/imu,3.18118911501e-06,7.46359345806e-07,0.707163703712,0.707049854071,-1.0,-1.0,-1.0,-1.0,-1.0,-1.0,-1.0,-1.0,-1.0,-8.00485594153e-05,2.12945187191e-07,-8.14671751946e-05,0.0,0.0,0.0,0.0,0.0,0.0,0.0,0.0,0.0,0.00686392255541,6.78005852612e-06,-4.26598758631e-05,0.0,0.0,0.0,0.0,0.0,0.0,0.0,0.0,0.0
95391181979,5612,95392000000,honey/imu,2.73278543839e-06,2.88962732067e-07,0.707163250239,0.707050307619,-1.0,-1.0,-1.0,-1.0,-1.0,-1.0,-1.0,-1.0,-1.0,-8.0020401351e-05,-1.02552359476e-06,-7.97784921557e-05,0.0,0.0,0.0,0.0,0.0,0.0,0.0,0.0,0.0,-0.00188627455939,0.0001204587811,1.55936778288e-05,0.0,0.0,0.0,0.0,0.0,0.0,0.0,0.0,0.0
95401251409,5613,95408000000,honey/imu,2.29137027957e-06,-1.72403556781e-07,0.707162806962,0.707050750968,-1.0,-1.0,-1.0,-1.0,-1.0,-1.0,-1.0,-1.0,-1.0,-7.96548539957e-05,-2.01521039159e-06,-7.77389973229e-05,0.0,0.0,0.0,0.0,0.0,0.0,0.0,0.0,0.0,0.000271308818015,0.000122459892224,1.24005168299e-06,0.0,0.0,0.0,0.0,0.0,0.0,0.0,0.0,0.0
95421429603,5614,95424000000,honey/imu,1.86021720973e-06,-6.36540253758e-07,0.707162379753,0.707051178246,-1.0,-1.0,-1.0,-1.0,-1.0,-1.0,-1.0,-1.0,-1.0,-7.88938014738e-05,-3.28727639884e-06,-7.45706475963e-05,0.0,0.0,0.0,0.0,0.0,0.0,0.0,0.0,0.0,0.000291342337765,0.000130924895376,8.91106910484e-07,0.0,0.0,0.0,0.0,0.0,0.0,0.0,0.0,0.0
95431562072,5615,95440000000,honey/imu,1.44189379734e-06,-1.10224006523e-06,0.70716197339,0.707051584673,-1.0,-1.0,-1.0,-1.0,-1.0,-1.0,-1.0,-1.0,-1.0,-7.78613019838e-05,-4.31947340457e-06,-7.10231312896e-05,0.0,0.0,0.0,0.0,0.0,0.0,0.0,0.0,0.0,0.000321384668343,0.000149068367011,3.04602615718e-07,0.0,0.0,0.0,0.0,0.0,0.0,0.0,0.0,0.0
95441687750,5616,95456000000,honey/imu,1.03295931493e-06,-1.56479691619e-06,0.707161585552,0.707051972571,-1.0,-1.0,-1.0,-1.0,-1.0,-1.0,-1.0,-1.0,-1.0,-7.67520536759e-05,-4.87165237805e-06,-6.77443866256e-05,0.0,0.0,0.0,0.0,0.0,0.0,0.0,0.0,0.0,0.000335531999454,0.000165326398658,-1.40755792709e-07,0.0,0.0,0.0,0.0,0.0,0.0,0.0,0.0,0.0
95472220514,5617,95472000000,honey/imu,6.34062434968e-07,-2.02499174038e-06,0.707161216746,0.707052341433,-1.0,-1.0,-1.0,-1.0,-1.0,-1.0,-1.0,-1.0,-1.0,-7.56726540887e-05,-5.67646403401e-06,-6.43008891177e-05,0.0,0.0,0.0,0.0,0.0,0.0,0.0,0.0,0.0,0.000334644565427,0.00017094966252,5.26145112431e-07,0.0,0.0,0.0,0.0,0.0,0.0,0.0,0.0,0.0
95482336911,5618,95488000000,honey/imu,2.47844550075e-07,-2.48626340421e-06,0.707160868866,0.707052689365,-1.0,-1.0,-1.0,-1.0,-1.0,-1.0,-1.0,-1.0,-1.0,-7.46681626301e-05,-7.05094068056e-06,-6.05026667321e-05,0.0,0.0,0.0,0.0,0.0,0.0,0.0,0.0,0.0,0.000323969562414,0.000171839773358,1.92429201558e-06,0.0,0.0,0.0,0.0,0.0,0.0,0.0,0.0,0.0
95502503418,5619,95504000000,honey/imu,-1.22645925738e-07,-2.95239179585e-06,0.707160544221,0.707053014058,-1.0,-1.0,-1.0,-1.0,-1.0,-1.0,-1.0,-1.0,-1.0,-7.37093988121e-05,-8.99834272653e-06,-5.62824827205e-05,0.0,0.0,0.0,0.0,0.0,0.0,0.0,0.0,0.0,0.000310755000513,0.000164346283966,4.01717278069e-06,0.0,0.0,0.0,0.0,0.0,0.0,0.0,0.0,0.0
95502503418,5620,95520000000,honey/imu,-4.76466227497e-07,-3.42438677175e-06,0.707160243628,0.707053314694,-1.0,-1.0,-1.0,-1.0,-1.0,-1.0,-1.0,-1.0,-1.0,-7.27547326751e-05,-1.07792295691e-05,-5.22231413206e-05,0.0,0.0,0.0,0.0,0.0,0.0,0.0,0.0,0.0,0.00029878501236,0.000142701445235,8.54354482188e-06,0.0,0.0,0.0,0.0,0.0,0.0,0.0,0.0,0.0
95532884338,5621,95536000000,honey/imu,-8.19005007509e-07,-3.89686503897e-06,0.70715996217,0.707053596192,-1.0,-1.0,-1.0,-1.0,-1.0,-1.0,-1.0,-1.0,-1.0,-7.18004620473e-05,-1.15006139174e-05,-4.91310274759e-05,0.0,0.0,0.0,0.0,0.0,0.0,0.0,0.0,0.0,-0.00268413448393,-0.00129668016506,-2.11918757236e-05,0.0,0.0,0.0,0.0,0.0,0.0,0.0,0.0,0.0
95542962665,5622,95544000000,honey/imu,-9.88071944873e-07,-4.13125880387e-06,0.707159826766,0.707053731615,-1.0,-1.0,-1.0,-1.0,-1.0,-1.0,-1.0,-1.0,-1.0,-7.13234221795e-05,-1.15427366862e-05,-4.78757434814e-05,0.0,0.0,0.0,0.0,0.0,0.0,0.0,0.0,0.0,-0.00508338315008,-0.00368632403008,6.89846439974e-05,0.0,0.0,0.0,0.0,0.0,0.0,0.0,0.0,0.0
95563161824,5623,95560000000,honey/imu,-1.3186485858e-06,-4.60333563093e-06,0.707159557227,0.707054001191,-1.0,-1.0,-1.0,-1.0,-1.0,-1.0,-1.0,-1.0,-1.0,-7.08205361905e-05,-1.28210514491e-05,-4.75766145468e-05,0.0,0.0,0.0,0.0,0.0,0.0,0.0,0.0,0.0,0.000158092606312,0.000204164966893,1.90057180993e-05,0.0,0.0,0.0,0.0,0.0,0.0,0.0,0.0,0.0
95583396246,5624,95576000000,honey/imu,-1.62852758231e-06,-5.09216986009e-06,0.707159279446,0.707054279009,-1.0,-1.0,-1.0,-1.0,-1.0,-1.0,-1.0,-1.0,-1.0,-7.05241367128e-05,-1.68090923616e-05,-4.9619002822e-05,0.0,0.0,0.0,0.0,0.0,0.0,0.0,0.0,0.0,0.000137465976194,0.00015054108708,3.80318560306e-05,0.0,0.0,0.0,0.0,0.0,0.0,0.0,0.0,0.0
95593473576,5625,95592000000,honey/imu,-1.91213994313e-06,-5.60400965156e-06,0.707158986366,0.707054572127,-1.0,-1.0,-1.0,-1.0,-1.0,-1.0,-1.0,-1.0,-1.0,-7.02447141335e-05,-2.15312446456e-05,-5.29856479448e-05,0.0,0.0,0.0,0.0,0.0,0.0,0.0,0.0,0.0,0.000131784230038,0.000114812387921,1.01625362787e-05,0.0,0.0,0.0,0.0,0.0,0.0,0.0,0.0,0.0
95613675307,5626,95616000000,honey/imu,-2.2678786497e-06,-6.42187755536e-06,0.707158495014,0.707055063543,-1.0,-1.0,-1.0,-1.0,-1.0,-1.0,-1.0,-1.0,-1.0,-6.85265568817e-05,-2.97769319131e-05,-5.9986370667e-05,0.0,0.0,0.0,0.0,0.0,0.0,0.0,0.0,0.0,0.00192898224795,0.00124548773949,-0.000108130885369,0.0,0.0,0.0,0.0,0.0,0.0,0.0,0.0,0.0
95623757144,5627,95624000000,honey/imu,-2.46487424933e-06,-6.98947931936e-06,0.707158143247,0.707055415356,-1.0,-1.0,-1.0,-1.0,-1.0,-1.0,-1.0,-1.0,-1.0,-6.78372027937e-05,-3.21306152413e-05,-6.18052840298e-05,0.0,0.0,0.0,0.0,0.0,0.0,0.0,0.0,0.0,-0.00545965603621,-0.00350178555265,0.000428936993086,0.0,0.0,0.0,0.0,0.0,0.0,0.0,0.0,0.0
95644009176,5628,95648000000,honey/imu,-2.64457089906e-06,-7.56336254944e-06,0.707157784195,0.707055774454,-1.0,-1.0,-1.0,-1.0,-1.0,-1.0,-1.0,-1.0,-1.0,-6.63961324143e-05,-3.50565533671e-05,-6.3615415792e-05,0.0,0.0,0.0,0.0,0.0,0.0,0.0,0.0,0.0,0.00187053896457,0.00120121847043,-0.000151853394494,0.0,0.0,0.0,0.0,0.0,0.0,0.0,0.0,0.0
95664235189,5629,95664000000,honey/imu,-2.81650757807e-06,-8.13639529653e-06,0.707157423173,0.70705613552,-1.0,-1.0,-1.0,-1.0,-1.0,-1.0,-1.0,-1.0,-1.0,-6.57312222365e-05,-3.53968316122e-05,-6.3754481032e-05,0.0,0.0,0.0,0.0,0.0,0.0,0.0,0.0,0.0,5.04486678048e-05,2.95731872693e-05,-6.35443591471e-06,0.0,0.0,0.0,0.0,0.0,0.0,0.0,0.0,0.0
95674361979,5630,95680000000,honey/imu,-2.98893031953e-06,-8.7047063268e-06,0.707157064962,0.707056493775,-1.0,-1.0,-1.0,-1.0,-1.0,-1.0,-1.0,-1.0,-1.0,-6.54550812848e-05,-3.46769856712e-05,-6.30395957788e-05,0.0,0.0,0.0,0.0,0.0,0.0,0.0,0.0,0.0,4.59215015657e-05,2.64346452162e-05,-3.70184457095e-06,0.0,0.0,0.0,0.0,0.0,0.0,0.0,0.0,0.0
95694633193,5631,95696000000,honey/imu,-3.16682942249e-06,-9.26661312009e-06,0.707156714853,0.707056843926,-1.0,-1.0,-1.0,-1.0,-1.0,-1.0,-1.0,-1.0,-1.0,-6.53704817333e-05,-3.38157935263e-05,-6.13253805994e-05,0.0,0.0,0.0,0.0,0.0,0.0,0.0,0.0,0.0,6.90366879861e-05,3.37436342168e-05,-1.06587775354e-05,0.0,0.0,0.0,0.0,0.0,0.0,0.0,0.0,0.0
95704719781,5632,95712000000,honey/imu,-3.3458396786e-06,-9.82783281215e-06,0.707156376715,0.707057182103,-1.0,-1.0,-1.0,-1.0,-1.0,-1.0,-1.0,-1.0,-1.0,-6.55350142e-05,-3.39813349198e-05,-5.93700547498e-05,0.0,0.0,0.0,0.0,0.0,0.0,0.0,0.0,0.0,0.000131990912959,8.49541625784e-05,-2.35045630252e-05,0.0,0.0,0.0,0.0,0.0,0.0,0.0,0.0,0.0
95724956279,5633,95728000000,honey/imu,-3.52181631802e-06,-1.039867194e-05,0.707156045863,0.707057512992,-1.0,-1.0,-1.0,-1.0,-1.0,-1.0,-1.0,-1.0,-1.0,-6.62807028099e-05,-3.54035602475e-05,-5.84271550687e-05,0.0,0.0,0.0,0.0,0.0,0.0,0.0,0.0,0.0,0.000212991749639,0.000144216676646,-2.99531081106e-05,0.0,0.0,0.0,0.0,0.0,0.0,0.0,0.0,0.0
95735097902,5634,95744000000,honey/imu,-3.69197457616e-06,-1.09889992577e-05,0.707155714509,0.707057844383,-1.0,-1.0,-1.0,-1.0,-1.0,-1.0,-1.0,-1.0,-1.0,-6.76248174398e-05,-3.78470331465e-05,-5.88570828341e-05,0.0,0.0,0.0,0.0,0.0,0.0,0.0,0.0,0.0,0.000280281765067,0.000188651963233,-2.34638107187e-05,0.0,0.0,0.0,0.0,0.0,0.0,0.0,0.0,0.0
95755286211,5635,95760000000,honey/imu,-3.85502266525e-06,-1.16056489282e-05,0.70715537549,0.707058183438,-1.0,-1.0,-1.0,-1.0,-1.0,-1.0,-1.0,-1.0,-1.0,-6.94059790124e-05,-4.08998837606e-05,-6.04543935633e-05,0.0,0.0,0.0,0.0,0.0,0.0,0.0,0.0,0.0,0.000326561229915,0.000206719680361,9.54714473551e-06,0.0,0.0,0.0,0.0,0.0,0.0,0.0,0.0,0.0
95775534904,5636,95768000000,honey/imu,-3.93378407146e-06,-1.19249949589e-05,0.707155201564,0.707058357382,-1.0,-1.0,-1.0,-1.0,-1.0,-1.0,-1.0,-1.0,-1.0,-7.03793767593e-05,-4.25242458423e-05,-6.14954917817e-05,0.0,0.0,0.0,0.0,0.0,0.0,0.0,0.0,0.0,-0.00520646459969,-0.00329654874314,0.000404768652198,0.0,0.0,0.0,0.0,0.0,0.0,0.0,0.0,0.0
95785624528,5637,95792000000,honey/imu,-4.17236217395e-06,-1.29143043032e-05,0.707154647631,0.707058911371,-1.0,-1.0,-1.0,-1.0,-1.0,-1.0,-1.0,-1.0,-1.0,-7.32006432475e-05,-4.47750615927e-05,-6.70943597052e-05,0.0,0.0,0.0,0.0,0.0,0.0,0.0,0.0,0.0,0.00219290747693,0.00116025359672,0.000554781759963,0.0,0.0,0.0,0.0,0.0,0.0,0.0,0.0,0.0
95805829317,5638,95808000000,honey/imu,-4.33634940573e-06,-1.35906180541e-05,0.707154254007,0.707059305035,-1.0,-1.0,-1.0,-1.0,-1.0,-1.0,-1.0,-1.0,-1.0,-7.46058340301e-05,-4.54438888966e-05,-7.03274432472e-05,0.0,0.0,0.0,0.0,0.0,0.0,0.0,0.0,0.0,-0.0051103764574,-0.003122317925,0.000123520830361,0.0,0.0,0.0,0.0,0.0,0.0,0.0,0.0,0.0
95826076587,5639,95816000000,honey/imu,-4.41972962168e-06,-1.39329802515e-05,0.707154050914,0.707059508148,-1.0,-1.0,-1.0,-1.0,-1.0,-1.0,-1.0,-1.0,-1.0,-7.52648803208e-05,-4.5776015468e-05,-7.18080997455e-05,0.0,0.0,0.0,0.0,0.0,0.0,0.0,0.0,0.0,0.00525977219811,0.003829698349,-0.00216019961372,0.0,0.0,0.0,0.0,0.0,0.0,0.0,0.0,0.0
95846290622,5640,95832000000,honey/imu,-4.58793571242e-06,-1.46274441143e-05,0.707153633371,0.707059925731,-1.0,-1.0,-1.0,-1.0,-1.0,-1.0,-1.0,-1.0,-1.0,-7.6583143578e-05,-4.67533271634e-05,-7.44845677525e-05,0.0,0.0,0.0,0.0,0.0,0.0,0.0,0.0,0.0,0.000216910861814,0.000157293965586,-7.72439971652e-05,0.0,0.0,0.0,0.0,0.0,0.0,0.0,0.0,0.0
95846290622,5641,95848000000,honey/imu,-4.76055082737e-06,-1.5334808385e-05,0.707153197274,0.707060361869,-1.0,-1.0,-1.0,-1.0,-1.0,-1.0,-1.0,-1.0,-1.0,-7.81837560788e-05,-4.7428081114e-05,-7.79657892892e-05,0.0,0.0,0.0,0.0,0.0,0.0,0.0,0.0,0.0,0.000241575630324,0.00017004100674,-8.27292686582e-05,0.0,0.0,0.0,0.0,0.0,0.0,0.0,0.0,0.0
95866439511,5642,95872000000,honey/imu,-5.04170679886e-06,-1.64113561594e-05,0.707152493473,0.707061065736,-1.0,-1.0,-1.0,-1.0,-1.0,-1.0,-1.0,-1.0,-1.0,-8.09437221371e-05,-4.63234361178e-05,-8.57306779457e-05,0.0,0.0,0.0,0.0,0.0,0.0,0.0,0.0,0.0,-0.00141710992135,-0.00101968537731,0.000525768585341,0.0,0.0,0.0,0.0,0.0,0.0,0.0,0.0,0.0
95876555783,5643,95880000000,honey/imu,-5.14430232645e-06,-1.67720185256e-05,0.70715224258,0.707061316653,-1.0,-1.0,-1.0,-1.0,-1.0,-1.0,-1.0,-1.0,-1.0,-8.18968617789e-05,-4.56135627695e-05,-8.87083352204e-05,0.0,0.0,0.0,0.0,0.0,0.0,0.0,0.0,0.0,0.00543089337289,0.0038863586503,-0.00199748853788,0.0,0.0,0.0,0.0,0.0,0.0,0.0,0.0,0.0
95896754018,5644,95904000000,honey/imu,-5.47300999414e-06,-1.7852696079e-05,0.707151450078,0.707062109227,-1.0,-1.0,-1.0,-1.0,-1.0,-1.0,-1.0,-1.0,-1.0,-8.33235850538e-05,-4.39854280596e-05,-9.57314402292e-05,0.0,0.0,0.0,0.0,0.0,0.0,0.0,0.0,0.0,-0.0014666479207,-0.00105112604825,0.000542186508145,0.0,0.0,0.0,0.0,0.0,0.0,0.0,0.0,0.0
95916952817,5645,95920000000,honey/imu,-5.69195835704e-06,-1.85746404091e-05,0.70715088961,0.707062669745,-1.0,-1.0,-1.0,-1.0,-1.0,-1.0,-1.0,-1.0,-1.0,-8.29449473655e-05,-4.50121169739e-05,-0.000100113984799,0.0,0.0,0.0,0.0,0.0,0.0,0.0,0.0,0.0,0.000232212500312,0.000160574113352,-7.05578762895e-05,0.0,0.0,0.0,0.0,0.0,0.0,0.0,0.0,0.0
95927025439,5646,95936000000,honey/imu,-5.89143718839e-06,-1.93056263149e-05,0.707150305419,0.707063253987,-1.0,-1.0,-1.0,-1.0,-1.0,-1.0,-1.0,-1.0,-1.0,-8.19926332764e-05,-4.78120949444e-05,-0.000104374072085,0.0,0.0,0.0,0.0,0.0,0.0,0.0,0.0,0.0,0.000240299341193,0.000166532822151,-7.23673997948e-05,0.0,0.0,0.0,0.0,0.0,0.0,0.0,0.0,0.0
95947179038,5647,95952000000,honey/imu,-6.06668179329e-06,-2.00513595041e-05,0.707149697075,0.707063862383,-1.0,-1.0,-1.0,-1.0,-1.0,-1.0,-1.0,-1.0,-1.0,-8.13299811363e-05,-5.13432051349e-05,-0.000108521198713,0.0,0.0,0.0,0.0,0.0,0.0,0.0,0.0,0.0,0.000251971688745,0.000184173772146,-7.92093386822e-05,0.0,0.0,0.0,0.0,0.0,0.0,0.0,0.0,0.0
95967357455,5648,95968000000,honey/imu,-6.22130903444e-06,-2.08160086198e-05,0.70714906923,0.70706449028,-1.0,-1.0,-1.0,-1.0,-1.0,-1.0,-1.0,-1.0,-1.0,-8.13410900336e-05,-5.46293041168e-05,-0.000111514312327,0.0,0.0,0.0,0.0,0.0,0.0,0.0,0.0,0.0,0.00018319552866,0.000146242699876,-9.52112858733e-05,0.0,0.0,0.0,0.0,0.0,0.0,0.0,0.0,0.0
95977471720,5649,95984000000,honey/imu,-6.36394780078e-06,-2.15966294633e-05,0.707148432583,0.707065126978,-1.0,-1.0,-1.0,-1.0,-1.0,-1.0,-1.0,-1.0,-1.0,-8.17119554424e-05,-5.67020738487e-05,-0.000112541538742,0.0,0.0,0.0,0.0,0.0,0.0,0.0,0.0,0.0,0.000295400336127,0.00019106256889,-2.21107179012e-05,0.0,0.0,0.0,0.0,0.0,0.0,0.0,0.0,0.0
95997633638,5650,96000000000,honey/imu,-6.50217476859e-06,-2.23841793182e-05,0.707147797811,0.707065761799,-1.0,-1.0,-1.0,-1.0,-1.0,-1.0,-1.0,-1.0,-1.0,-8.17489291079e-05,-5.74311533445e-05,-0.000111908510449,0.0,0.0,0.0,0.0,0.0,0.0,0.0,0.0,0.0,0.000280381333707,0.000178188594345,-1.85384876979e-05,0.0,0.0,0.0,0.0,0.0,0.0,0.0,0.0,0.0
96007756879,5651,96016000000,honey/imu,-6.63796991425e-06,-2.31686741703e-05,0.707147170682,0.707066388973,-1.0,-1.0,-1.0,-1.0,-1.0,-1.0,-1.0,-1.0,-1.0,-8.11131244774e-05,-5.71386401849e-05,-0.000110441541316,0.0,0.0,0.0,0.0,0.0,0.0,0.0,0.0,0.0,0.000258495456903,0.000163666023473,-1.92838543174e-05,0.0,0.0,0.0,0.0,0.0,0.0,0.0,0.0,0.0
96017846952,5652,96024000000,honey/imu,-6.70550729816e-06,-2.35573048572e-05,0.707146860719,0.707066698958,-1.0,-1.0,-1.0,-1.0,-1.0,-1.0,-1.0,-1.0,-1.0,-8.06444071355e-05,-5.6754896744e-05,-0.000109592448787,0.0,0.0,0.0,0.0,0.0,0.0,0.0,0.0,0.0,-0.00526303519187,-0.00339451165072,0.000474169750365,0.0,0.0,0.0,0.0,0.0,0.0,0.0,0.0,0.0
96038095624,5653,96048000000,honey/imu,-6.91056399148e-06,-2.46992201537e-05,0.707145945326,0.707067614413,-1.0,-1.0,-1.0,-1.0,-1.0,-1.0,-1.0,-1.0,-1.0,-7.87198671957e-05,-5.43187903248e-05,-0.000107075175328,0.0,0.0,0.0,0.0,0.0,0.0,0.0,0.0,0.0,0.00206737996726,0.00133184771687,-0.000187079886408,0.0,0.0,0.0,0.0,0.0,0.0,0.0,0.0,0.0
96058395126,5654,96064000000,honey/imu,-7.05104803951e-06,-2.5437935206e-05,0.707145346095,0.707068213682,-1.0,-1.0,-1.0,-1.0,-1.0,-1.0,-1.0,-1.0,-1.0,-7.73803197676e-05,-5.2367778656e-05,-0.000105570683016,0.0,0.0,0.0,0.0,0.0,0.0,0.0,0.0,0.0,0.000225259382844,0.000145009333058,-2.60176886854e-05,0.0,0.0,0.0,0.0,0.0,0.0,0.0,0.0,0.0
96078595550,5655,96072000000,honey/imu,-7.12271016588e-06,-2.58001897824e-05,0.707145049559,0.707068510236,-1.0,-1.0,-1.0,-1.0,-1.0,-1.0,-1.0,-1.0,-1.0,-7.67105254227e-05,-5.13633806071e-05,-0.00010484473887,0.0,0.0,0.0,0.0,0.0,0.0,0.0,0.0,0.0,-0.00528425040945,-0.00340962113519,0.000469124004602,0.0,0.0,0.0,0.0,0.0,0.0,0.0,0.0,0.0
96088670167,5656,96096000000,honey/imu,-7.34382545896e-06,-2.68564783046e-05,0.707144172095,0.707069387752,-1.0,-1.0,-1.0,-1.0,-1.0,-1.0,-1.0,-1.0,-1.0,-7.44158099495e-05,-4.79064014312e-05,-0.00010272840505,0.0,0.0,0.0,0.0,0.0,0.0,0.0,0.0,0.0,0.0020588108945,0.00133087685859,-0.000202454504759,0.0,0.0,0.0,0.0,0.0,0.0,0.0,0.0,0.0
96108918068,5657,96112000000,honey/imu,-7.49856706053e-06,-2.75244689524e-05,0.707143596429,0.707069963452,-1.0,-1.0,-1.0,-1.0,-1.0,-1.0,-1.0,-1.0,-1.0,-7.19867022441e-05,-4.42594715149e-05,-0.000101470942994,0.0,0.0,0.0,0.0,0.0,0.0,0.0,0.0,0.0,0.000219271674786,0.000147005222783,-6.95859100371e-05,0.0,0.0,0.0,0.0,0.0,0.0,0.0,0.0,0.0
96118979411,5658,96128000000,honey/imu,-7.6620029154e-06,-2.81477858508e-05,0.707143027381,0.707070532532,-1.0,-1.0,-1.0,-1.0,-1.0,-1.0,-1.0,-1.0,-1.0,-6.85740223696e-05,-3.92234680218e-05,-0.000100316711896,0.0,0.0,0.0,0.0,0.0,0.0,0.0,0.0,0.0,0.000201695530268,0.000139513866231,-0.000206494617491,0.0,0.0,0.0,0.0,0.0,0.0,0.0,0.0,0.0
96139178906,5659,96144000000,honey/imu,-7.83432635112e-06,-2.87167349953e-05,0.707142466017,0.707071093929,-1.0,-1.0,-1.0,-1.0,-1.0,-1.0,-1.0,-1.0,-1.0,-6.44107541749e-05,-3.37160601562e-05,-9.87221233178e-05,0.0,0.0,0.0,0.0,0.0,0.0,0.0,0.0,0.0,-0.000151830971893,-5.76517002727e-05,-0.00118588343663,0.0,0.0,0.0,0.0,0.0,0.0,0.0,0.0,0.0
96159362959,5660,96152000000,honey/imu,-8.01169488431e-06,-2.92303037038e-05,0.707141916345,0.707071643633,-1.0,-1.0,-1.0,-1.0,-1.0,-1.0,-1.0,-1.0,-1.0,-6.21860736139e-05,-3.10457438323e-05,-9.76886279491e-05,0.0,0.0,0.0,0.0,0.0,0.0,0.0,0.0,0.0,-0.00447822919981,-0.00304670551108,0.0032948806974,0.0,0.0,0.0,0.0,0.0,0.0,0.0,0.0,0.0
96159362959,5661,96176000000,honey/imu,-8.19220742422e-06,-2.96984935767e-05,0.707141373648,0.707072186361,-1.0,-1.0,-1.0,-1.0,-1.0,-1.0,-1.0,-1.0,-1.0,-5.66386688725e-05,-2.46128142131e-05,-9.59234248013e-05,0.0,0.0,0.0,0.0,0.0,0.0,0.0,0.0,0.0,-0.00158101705843,-0.000960080685838,-0.000271518118919,0.0,0.0,0.0,0.0,0.0,0.0,0.0,0.0,0.0
96189609932,5662,96184000000,honey/imu,-8.37495000261e-06,-3.01376181259e-05,0.707140829472,0.707072730569,-1.0,-1.0,-1.0,-1.0,-1.0,-1.0,-1.0,-1.0,-1.0,-5.52351309209e-05,-2.29945471332e-05,-9.5892700445e-05,0.0,0.0,0.0,0.0,0.0,0.0,0.0,0.0,0.0,0.00585653553569,0.00356080106902,0.000965413596078,0.0,0.0,0.0,0.0,0.0,0.0,0.0,0.0,0.0
96199666110,5663,96208000000,honey/imu,-8.55887781293e-06,-3.05690274447e-05,0.707140277066,0.707073283007,-1.0,-1.0,-1.0,-1.0,-1.0,-1.0,-1.0,-1.0,-1.0,-5.46142528616e-05,-2.20983977277e-05,-9.81872642874e-05,0.0,0.0,0.0,0.0,0.0,0.0,0.0,0.0,0.0,-0.0015386253208,-0.000950405078045,-0.000268986690308,0.0,0.0,0.0,0.0,0.0,0.0,0.0,0.0,0.0
96219779010,5664,96224000000,honey/imu,-8.74258675025e-06,-3.10130943444e-05,0.707139712816,0.707073847289,-1.0,-1.0,-1.0,-1.0,-1.0,-1.0,-1.0,-1.0,-1.0,-5.59210397697e-05,-2.34576565287e-05,-0.000100246013004,0.0,0.0,0.0,0.0,0.0,0.0,0.0,0.0,0.0,0.00030258630566,0.000183398432316,5.19227337049e-05,0.0,0.0,0.0,0.0,0.0,0.0,0.0,0.0,0.0
96239926523,5665,96240000000,honey/imu,-8.92604259133e-06,-3.14768241241e-05,0.707139137417,0.707074422718,-1.0,-1.0,-1.0,-1.0,-1.0,-1.0,-1.0,-1.0,-1.0,-5.76311490034e-05,-2.51763271582e-05,-0.0001021988206,0.0,0.0,0.0,0.0,0.0,0.0,0.0,0.0,0.0,0.000287830595765,0.000183209656625,4.99039776789e-05,0.0,0.0,0.0,0.0,0.0,0.0,0.0,0.0,0.0
96250025624,5666,96256000000,honey/imu,-9.10986716235e-06,-3.19594052563e-05,0.707138551163,0.707075009002,-1.0,-1.0,-1.0,-1.0,-1.0,-1.0,-1.0,-1.0,-1.0,-5.93301181775e-05,-2.68077569422e-05,-0.000104119714161,0.0,0.0,0.0,0.0,0.0,0.0,0.0,0.0,0.0,0.000283091483197,0.000184251600912,4.4213161083e-05,0.0,0.0,0.0,0.0,0.0,0.0,0.0,0.0,0.0
96270139956,5667,96272000000,honey/imu,-9.29409643087e-06,-3.24608032177e-05,0.707137954019,0.707075606173,-1.0,-1.0,-1.0,-1.0,-1.0,-1.0,-1.0,-1.0,-1.0,-6.10292104336e-05,-2.84350707306e-05,-0.000106044606062,0.0,0.0,0.0,0.0,0.0,0.0,0.0,0.0,0.0,0.000282148845144,0.000184676886473,4.23464426964e-05,0.0,0.0,0.0,0.0,0.0,0.0,0.0,0.0,0.0
96280250126,5668,96288000000,honey/imu,-9.4786013523e-06,-3.29812794352e-05,0.707137346019,0.7070762142,-1.0,-1.0,-1.0,-1.0,-1.0,-1.0,-1.0,-1.0,-1.0,-6.27515895331e-05,-3.01312986043e-05,-0.000107957916447,0.0,0.0,0.0,0.0,0.0,0.0,0.0,0.0,0.0,0.000281685328493,0.000182439134164,4.53917612992e-05,0.0,0.0,0.0,0.0,0.0,0.0,0.0,0.0,0.0
96300362069,5669,96304000000,honey/imu,-9.662836679e-06,-3.3522203802e-05,0.707136727127,0.707076833117,-1.0,-1.0,-1.0,-1.0,-1.0,-1.0,-1.0,-1.0,-1.0,-6.4573302151e-05,-3.20283574548e-05,-0.000109906833703,0.0,0.0,0.0,0.0,0.0,0.0,0.0,0.0,0.0,0.000274640404205,0.000166130409803,6.51905660268e-05,0.0,0.0,0.0,0.0,0.0,0.0,0.0,0.0,0.0
96310419182,5670,96320000000,honey/imu,-9.84620487678e-06,-3.4085862438e-05,0.707136096798,0.707077463469,-1.0,-1.0,-1.0,-1.0,-1.0,-1.0,-1.0,-1.0,-1.0,-6.65413303633e-05,-3.41712154404e-05,-0.000111953826648,0.0,0.0,0.0,0.0,0.0,0.0,0.0,0.0,0.0,0.000276765888459,0.000217348711096,-1.38206966227e-05,0.0,0.0,0.0,0.0,0.0,0.0,0.0,0.0,0.0
96330739763,5671,96328000000,honey/imu,-1.00282656573e-05,-3.46741558852e-05,0.707135454493,0.707078105796,-1.0,-1.0,-1.0,-1.0,-1.0,-1.0,-1.0,-1.0,-1.0,-6.75604507093e-05,-3.5299556922e-05,-0.00011300273264,0.0,0.0,0.0,0.0,0.0,0.0,0.0,0.0,0.0,-0.00486998811478,-0.00384334726311,0.000443584656848,0.0,0.0,0.0,0.0,0.0,0.0,0.0,0.0,0.0
96350928918,5672,96352000000,honey/imu,-1.0209967218e-05,-3.52870722842e-05,0.70713479874,0.707078761568,-1.0,-1.0,-1.0,-1.0,-1.0,-1.0,-1.0,-1.0,-1.0,-7.07833305808e-05,-3.85148458582e-05,-0.000116668856,0.0,0.0,0.0,0.0,0.0,0.0,0.0,0.0,0.0,0.00199559627524,0.00157361274063,-0.000160370759233,0.0,0.0,0.0,0.0,0.0,0.0,0.0,0.0,0.0
96360984269,5673,96368000000,honey/imu,-1.03967720262e-05,-3.59195644071e-05,0.707134124292,0.707079436035,-1.0,-1.0,-1.0,-1.0,-1.0,-1.0,-1.0,-1.0,-1.0,-7.29670304333e-05,-3.94448918915e-05,-0.000120297141703,0.0,0.0,0.0,0.0,0.0,0.0,0.0,0.0,0.0,0.000263989282694,0.000215476033757,-1.17065250911e-05,0.0,0.0,0.0,0.0,0.0,0.0,0.0,0.0,0.0
96381167268,5674,96384000000,honey/imu,-1.05963908707e-05,-3.6564001047e-05,0.707133424062,0.707080136283,-1.0,-1.0,-1.0,-1.0,-1.0,-1.0,-1.0,-1.0,-1.0,-7.51557111154e-05,-3.90585860129e-05,-0.000125137100684,0.0,0.0,0.0,0.0,0.0,0.0,0.0,0.0,0.0,0.000251410277978,0.000205418266842,-1.53895248799e-05,0.0,0.0,0.0,0.0,0.0,0.0,0.0,0.0,0.0
96391433697,5675,96400000000,honey/imu,-1.08140464979e-05,-3.72151679362e-05,0.707132693281,0.70708086708,-1.0,-1.0,-1.0,-1.0,-1.0,-1.0,-1.0,-1.0,-1.0,-7.73449203703e-05,-3.80640682869e-05,-0.000130532989962,0.0,0.0,0.0,0.0,0.0,0.0,0.0,0.0,0.0,0.000251964403119,0.000192314851314,-2.02898386245e-05,0.0,0.0,0.0,0.0,0.0,0.0,0.0,0.0,0.0
96411710722,5676,96416000000,honey/imu,-1.10459238858e-05,-3.78749973051e-05,0.707131933359,0.707081627019,-1.0,-1.0,-1.0,-1.0,-1.0,-1.0,-1.0,-1.0,-1.0,-7.92012057964e-05,-3.80651151905e-05,-0.000135449416829,0.0,0.0,0.0,0.0,0.0,0.0,0.0,0.0,0.0,0.000265275976541,0.000183866048548,-3.39231538372e-05,0.0,0.0,0.0,0.0,0.0,0.0,0.0,0.0,0.0
96431985746,5677,96424000000,honey/imu,-1.1163000844e-05,-3.82102360345e-05,0.707131543965,0.70708201642,-1.0,-1.0,-1.0,-1.0,-1.0,-1.0,-1.0,-1.0,-1.0,-7.99628559885e-05,-3.8558310176e-05,-0.000137672498365,0.0,0.0,0.0,0.0,0.0,0.0,0.0,0.0,0.0,-0.00493847885724,-0.00380143388357,0.000398011283988,0.0,0.0,0.0,0.0,0.0,0.0,0.0,0.0,0.0
96442049775,5678,96448000000,honey/imu,-1.14794722698e-05,-3.9235467069e-05,0.707130351394,0.707083209011,-1.0,-1.0,-1.0,-1.0,-1.0,-1.0,-1.0,-1.0,-1.0,-7.78025763436e-05,-4.35713648978e-05,-0.000141241789431,0.0,0.0,0.0,0.0,0.0,0.0,0.0,0.0,0.0,0.00203960208141,0.00150668764184,-0.000207413741757,0.0,0.0,0.0,0.0,0.0,0.0,0.0,0.0,0.0
96462257252,5679,96464000000,honey/imu,-1.16380915778e-05,-3.99206586088e-05,0.707129552209,0.707084008208,-1.0,-1.0,-1.0,-1.0,-1.0,-1.0,-1.0,-1.0,-1.0,-7.3176367911e-05,-4.75402826327e-05,-0.000141115346355,0.0,0.0,0.0,0.0,0.0,0.0,0.0,0.0,0.0,-0.00485752407927,-0.00381948992982,0.000399256810572,0.0,0.0,0.0,0.0,0.0,0.0,0.0,0.0,0.0
96472262901,5680,96480000000,honey/imu,-1.17410455875e-05,-4.05947873221e-05,0.70712875695,0.707084803477,-1.0,-1.0,-1.0,-1.0,-1.0,-1.0,-1.0,-1.0,-1.0,-6.70246253604e-05,-5.14054436995e-05,-0.000140380392994,0.0,0.0,0.0,0.0,0.0,0.0,0.0,0.0,0.0,0.000290541328095,0.000249599701285,-2.59227921033e-05,0.0,0.0,0.0,0.0,0.0,0.0,0.0,0.0,0.0
96492406207,5681,96496000000,honey/imu,-1.1784604525e-05,-4.12504178748e-05,0.707127968048,0.707085592389,-1.0,-1.0,-1.0,-1.0,-1.0,-1.0,-1.0,-1.0,-1.0,-5.99145724612e-05,-5.49252001365e-05,-0.000138950388251,0.0,0.0,0.0,0.0,0.0,0.0,0.0,0.0,0.0,0.000294016510627,0.000255109144113,-2.70441043738e-05,0.0,0.0,0.0,0.0,0.0,0.0,0.0,0.0,0.0
96502490694,5682,96512000000,honey/imu,-1.17651970957e-05,-4.18806130552e-05,0.707127193753,0.707086366693,-1.0,-1.0,-1.0,-1.0,-1.0,-1.0,-1.0,-1.0,-1.0,-5.18479254342e-05,-5.82313296828e-05,-0.000135829234616,0.0,0.0,0.0,0.0,0.0,0.0,0.0,0.0,0.0,0.000307051992126,0.000262451722504,-2.70277177978e-05,0.0,0.0,0.0,0.0,0.0,0.0,0.0,0.0,0.0
96522685894,5683,96528000000,honey/imu,-1.16793013787e-05,-4.24778501634e-05,0.707126444278,0.707087116176,-1.0,-1.0,-1.0,-1.0,-1.0,-1.0,-1.0,-1.0,-1.0,-4.28407759483e-05,-6.08764088958e-05,-0.000131254043851,0.0,0.0,0.0,0.0,0.0,0.0,0.0,0.0,0.0,0.000328448803892,0.000273239403086,-2.64067976309e-05,0.0,0.0,0.0,0.0,0.0,0.0,0.0,0.0,0.0
96542940642,5684,96544000000,honey/imu,-1.15289410684e-05,-4.30314969845e-05,0.707125723979,0.707087836483,-1.0,-1.0,-1.0,-1.0,-1.0,-1.0,-1.0,-1.0,-1.0,-3.31807035802e-05,-6.25603891514e-05,-0.000125890308687,0.0,0.0,0.0,0.0,0.0,0.0,0.0,0.0,0.0,0.000339299020675,0.000290939904915,-2.65138642639e-05,0.0,0.0,0.0,0.0,0.0,0.0,0.0,0.0,0.0
96553019086,5685,96560000000,honey/imu,-1.1316965228e-05,-4.35351384305e-05,0.70712503552,0.707088524951,-1.0,-1.0,-1.0,-1.0,-1.0,-1.0,-1.0,-1.0,-1.0,-2.33270440429e-05,-6.32528331403e-05,-0.000120410350521,0.0,0.0,0.0,0.0,0.0,0.0,0.0,0.0,0.0,0.000350637741033,0.000296058651232,-2.77539981558e-05,0.0,0.0,0.0,0.0,0.0,0.0,0.0,0.0,0.0
96573234394,5686,96576000000,honey/imu,-1.10523293576e-05,-4.39827171663e-05,0.707124375893,0.707089184588,-1.0,-1.0,-1.0,-1.0,-1.0,-1.0,-1.0,-1.0,-1.0,-1.39359585181e-05,-6.26282461835e-05,-0.000115400493537,0.0,0.0,0.0,0.0,0.0,0.0,0.0,0.0,0.0,0.000371247077879,0.000295438736397,-3.56794989205e-05,0.0,0.0,0.0,0.0,0.0,0.0,0.0,0.0,0.0
96583311420,5687,96592000000,honey/imu,-1.07477274458e-05,-4.43727752796e-05,0.70712374427,0.707089816222,-1.0,-1.0,-1.0,-1.0,-1.0,-1.0,-1.0,-1.0,-1.0,-5.6556432183e-06,-6.07989579918e-05,-0.000110336413805,0.0,0.0,0.0,0.0,0.0,0.0,0.0,0.0,0.0,-0.001907160579,-0.0020358694431,-4.15377702561e-05,0.0,0.0,0.0,0.0,0.0,0.0,0.0,0.0,0.0
96603479015,5688,96608000000,honey/imu,-1.04161399218e-05,-4.47069351553e-05,0.707123143562,0.707090416942,-1.0,-1.0,-1.0,-1.0,-1.0,-1.0,-1.0,-1.0,-1.0,1.3894041538e-06,-5.80740957199e-05,-0.000104698665362,0.0,0.0,0.0,0.0,0.0,0.0,0.0,0.0,0.0,0.000322968554051,0.000411565771055,1.65389253422e-05,0.0,0.0,0.0,0.0,0.0,0.0,0.0,0.0,0.0
96623639334,5689,96624000000,honey/imu,-1.00666508625e-05,-4.49877375844e-05,0.707122577454,0.707090983064,-1.0,-1.0,-1.0,-1.0,-1.0,-1.0,-1.0,-1.0,-1.0,7.50394645548e-06,-5.48713716757e-05,-9.84495805665e-05,0.0,0.0,0.0,0.0,0.0,0.0,0.0,0.0,0.0,0.000374812065789,0.000383191418185,-9.89636088804e-06,0.0,0.0,0.0,0.0,0.0,0.0,0.0,0.0,0.0
96633696014,5690,96640000000,honey/imu,-9.70428869729e-06,-4.52176599898e-05,0.707122048256,0.707091512275,-1.0,-1.0,-1.0,-1.0,-1.0,-1.0,-1.0,-1.0,-1.0,1.30282284005e-05,-5.14945560753e-05,-9.19145154886e-05,0.0,0.0,0.0,0.0,0.0,0.0,0.0,0.0,0.0,0.000396701471422,0.000369637436612,-2.3669995891e-05,0.0,0.0,0.0,0.0,0.0,0.0,0.0,0.0,0.0
96653878020,5691,96656000000,honey/imu,-9.33085075747e-06,-4.54021432839e-05,0.707121555803,0.707092004742,-1.0,-1.0,-1.0,-1.0,-1.0,-1.0,-1.0,-1.0,-1.0,1.77168948609e-05,-4.88331089034e-05,-8.54786427685e-05,0.0,0.0,0.0,0.0,0.0,0.0,0.0,0.0,0.0,0.00040312034969,0.000361405651473,-3.58621488754e-05,0.0,0.0,0.0,0.0,0.0,0.0,0.0,0.0,0.0
96663973376,5692,96672000000,honey/imu,-8.94452561712e-06,-4.55573209806e-05,0.707121098815,0.707092461744,-1.0,-1.0,-1.0,-1.0,-1.0,-1.0,-1.0,-1.0,-1.0,2.11009520727e-05,-4.7841785336e-05,-7.92562287755e-05,0.0,0.0,0.0,0.0,0.0,0.0,0.0,0.0,0.0,0.000397226982771,0.000358721214046,-3.57843553002e-05,0.0,0.0,0.0,0.0,0.0,0.0,0.0,0.0,0.0
96684142584,5693,96688000000,honey/imu,-8.54263040204e-06,-4.57004190692e-05,0.70712067659,0.707092883981,-1.0,-1.0,-1.0,-1.0,-1.0,-1.0,-1.0,-1.0,-1.0,2.32959901075e-05,-4.85316135131e-05,-7.30944736913e-05,0.0,0.0,0.0,0.0,0.0,0.0,0.0,0.0,0.0,0.000304153419261,0.000337646709135,1.53837945749e-05,0.0,0.0,0.0,0.0,0.0,0.0,0.0,0.0,0.0
96694399876,5694,96696000000,honey/imu,-8.33500389777e-06,-4.57714478645e-05,0.707120478618,0.707093081959,-1.0,-1.0,-1.0,-1.0,-1.0,-1.0,-1.0,-1.0,-1.0,2.41444844481e-05,-4.92575527525e-05,-6.99970985833e-05,0.0,0.0,0.0,0.0,0.0,0.0,0.0,0.0,0.0,-0.00454134431833,-0.00391119543711,0.000633791561371,0.0,0.0,0.0,0.0,0.0,0.0,0.0,0.0,0.0
96714539249,5695,96712000000,honey/imu,-7.90789078356e-06,-4.59153550536e-05,0.707120103035,0.707093457552,-1.0,-1.0,-1.0,-1.0,-1.0,-1.0,-1.0,-1.0,-1.0,2.53243302361e-05,-5.08734630873e-05,-6.51981190702e-05,0.0,0.0,0.0,0.0,0.0,0.0,0.0,0.0,0.0,0.000401944547686,0.000381575277816,-1.48034167152e-05,0.0,0.0,0.0,0.0,0.0,0.0,0.0,0.0,0.0
96734697446,5696,96736000000,honey/imu,-7.24199727076e-06,-4.61386625913e-05,0.707119578782,0.707093981817,-1.0,-1.0,-1.0,-1.0,-1.0,-1.0,-1.0,-1.0,-1.0,2.62532397682e-05,-5.2931145756e-05,-6.09837161382e-05,0.0,0.0,0.0,0.0,0.0,0.0,0.0,0.0,0.0,0.00208633659869,0.00174545964381,-0.000353873181812,0.0,0.0,0.0,0.0,0.0,0.0,0.0,0.0,0.0
96744767164,5697,96752000000,honey/imu,-6.79015287191e-06,-4.62905696673e-05,0.707119236901,0.707094323705,-1.0,-1.0,-1.0,-1.0,-1.0,-1.0,-1.0,-1.0,-1.0,2.65736442198e-05,-5.3435174167e-05,-6.04916133143e-05,0.0,0.0,0.0,0.0,0.0,0.0,0.0,0.0,0.0,0.000355727107983,0.000288917026594,-4.55432646205e-05,0.0,0.0,0.0,0.0,0.0,0.0,0.0,0.0,0.0
96764950519,5698,96768000000,honey/imu,-6.33579596453e-06,-4.6440587536e-05,0.707118894041,0.707094666571,-1.0,-1.0,-1.0,-1.0,-1.0,-1.0,-1.0,-1.0,-1.0,2.7090521232e-05,-5.32558382684e-05,-6.06309138698e-05,0.0,0.0,0.0,0.0,0.0,0.0,0.0,0.0,0.0,0.000289833156602,0.000200901259381,-2.00909436081e-05,0.0,0.0,0.0,0.0,0.0,0.0,0.0,0.0,0.0
96775080134,5699,96776000000,honey/imu,-5.88056391528e-06,-4.65834139398e-05,0.7071185505,0.707095010118,-1.0,-1.0,-1.0,-1.0,-1.0,-1.0,-1.0,-1.0,-1.0,2.74767823625e-05,-5.29317416546e-05,-6.06667922315e-05,0.0,0.0,0.0,0.0,0.0,0.0,0.0,0.0,0.0,-0.00483695606103,-0.0038897488866,0.000721873463391,0.0,0.0,0.0,0.0,0.0,0.0,0.0,0.0,0.0
96795226800,5700,96800000000,honey/imu,-5.42361199307e-06,-4.67233494599e-05,0.707118205239,0.707095355385,-1.0,-1.0,-1.0,-1.0,-1.0,-1.0,-1.0,-1.0,-1.0,2.80246251871e-05,-5.28689982225e-05,-6.11418796115e-05,0.0,0.0,0.0,0.0,0.0,0.0,0.0,0.0,0.0,0.000284279989017,0.000245470316959,-5.45857152788e-05,0.0,0.0,0.0,0.0,0.0,0.0,0.0,0.0,0.0
96815439848,5701,96816000000,honey/imu,-4.96344709993e-06,-4.68675098487e-05,0.707117857457,0.707095703171,-1.0,-1.0,-1.0,-1.0,-1.0,-1.0,-1.0,-1.0,-1.0,2.78188817778e-05,-5.37321938181e-05,-6.16149773136e-05,0.0,0.0,0.0,0.0,0.0,0.0,0.0,0.0,0.0,0.000325542098687,0.000328186783754,-9.37110929531e-05,0.0,0.0,0.0,0.0,0.0,0.0,0.0,0.0,0.0
96825511377,5702,96832000000,honey/imu,-4.49813083902e-06,-4.70226893263e-05,0.707117506605,0.707096054028,-1.0,-1.0,-1.0,-1.0,-1.0,-1.0,-1.0,-1.0,-1.0,2.72198316938e-05,-5.53159119687e-05,-6.2172227069e-05,0.0,0.0,0.0,0.0,0.0,0.0,0.0,0.0,0.0,0.000376242734163,0.000374915097989,-0.000103817732236,0.0,0.0,0.0,0.0,0.0,0.0,0.0,0.0,0.0
96845756513,5703,96840000000,honey/imu,-4.02614921773e-06,-4.71935711943e-05,0.707117152414,0.707096408221,-1.0,-1.0,-1.0,-1.0,-1.0,-1.0,-1.0,-1.0,-1.0,2.68399327018e-05,-5.62622369555e-05,-6.24652903717e-05,0.0,0.0,0.0,0.0,0.0,0.0,0.0,0.0,0.0,-0.00410636983907,-0.00419845940441,0.00125126080018,0.0,0.0,0.0,0.0,0.0,0.0,0.0,0.0,0.0
96855882428,5704,96864000000,honey/imu,-3.54663416619e-06,-4.73824287971e-05,0.70711679483,0.707096765804,-1.0,-1.0,-1.0,-1.0,-1.0,-1.0,-1.0,-1.0,-1.0,2.54518104661e-05,-5.96565386573e-05,-6.33634547693e-05,0.0,0.0,0.0,0.0,0.0,0.0,0.0,0.0,0.0,0.00190850142404,0.0019562484436,-0.000578800614587,0.0,0.0,0.0,0.0,0.0,0.0,0.0,0.0,0.0
96876091804,5705,96880000000,honey/imu,-3.05929009982e-06,-4.7589800748e-05,0.707116433895,0.707097126738,-1.0,-1.0,-1.0,-1.0,-1.0,-1.0,-1.0,-1.0,-1.0,2.4507290722e-05,-6.1984975115e-05,-6.39558752252e-05,0.0,0.0,0.0,0.0,0.0,0.0,0.0,0.0,0.0,0.000367661938594,0.000457353540209,-0.000164184727357,0.0,0.0,0.0,0.0,0.0,0.0,0.0,0.0,0.0
96896243195,5706,96888000000,honey/imu,-2.5658599851e-06,-4.78138232908e-05,0.707116068097,0.707097492532,-1.0,-1.0,-1.0,-1.0,-1.0,-1.0,-1.0,-1.0,-1.0,2.40350215107e-05,-6.314921778e-05,-6.42520919899e-05,0.0,0.0,0.0,0.0,0.0,0.0,0.0,0.0,0.0,-0.00396141762402,-0.00425467962597,0.00135340703497,0.0,0.0,0.0,0.0,0.0,0.0,0.0,0.0,0.0
96906309299,5707,96912000000,honey/imu,-2.07272095785e-06,-4.8047188719e-05,0.707115692227,0.707097868398,-1.0,-1.0,-1.0,-1.0,-1.0,-1.0,-1.0,-1.0,-1.0,2.27826908138e-05,-6.42227239377e-05,-6.69826329549e-05,0.0,0.0,0.0,0.0,0.0,0.0,0.0,0.0,0.0,0.00046816157387,0.000395531243209,-9.15550033033e-05,0.0,0.0,0.0,0.0,0.0,0.0,0.0,0.0,0.0
96926517368,5708,96920000000,honey/imu,-1.58431925792e-06,-4.82853636739e-05,0.707115302302,0.707098258318,-1.0,-1.0,-1.0,-1.0,-1.0,-1.0,-1.0,-1.0,-1.0,2.24320940162e-05,-6.4243245192e-05,-6.80525427487e-05,0.0,0.0,0.0,0.0,0.0,0.0,0.0,0.0,0.0,-0.00456993035263,-0.00371519966603,0.000797829175644,0.0,0.0,0.0,0.0,0.0,0.0,0.0,0.0,0.0
96936644469,5709,96944000000,honey/imu,-1.1035887382e-06,-4.85308698495e-05,0.707114892149,0.707098668464,-1.0,-1.0,-1.0,-1.0,-1.0,-1.0,-1.0,-1.0,-1.0,2.04158130042e-05,-6.4231864654e-05,-7.34439152535e-05,0.0,0.0,0.0,0.0,0.0,0.0,0.0,0.0,0.0,0.00220107273748,0.00179200018546,-0.000382396513709,0.0,0.0,0.0,0.0,0.0,0.0,0.0,0.0,0.0
96956890347,5710,96952000000,honey/imu,-8.66012859601e-07,-4.86571479312e-05,0.707114679129,0.707098881481,-1.0,-1.0,-1.0,-1.0,-1.0,-1.0,-1.0,-1.0,-1.0,1.96715930849e-05,-6.43184830573e-05,-7.53162279919e-05,0.0,0.0,0.0,0.0,0.0,0.0,0.0,0.0,0.0,-0.00451738709781,-0.00367097349352,0.00078600797452,0.0,0.0,0.0,0.0,0.0,0.0,0.0,0.0,0.0
96967014481,5711,96976000000,honey/imu,-1.72822770429e-07,-4.90461992215e-05,0.707114022475,0.707099538123,-1.0,-1.0,-1.0,-1.0,-1.0,-1.0,-1.0,-1.0,-1.0,1.70790067004e-05,-6.34181138274e-05,-7.80110658173e-05,0.0,0.0,0.0,0.0,0.0,0.0,0.0,0.0,0.0,-0.000897369581019,-0.00108185720811,0.000293768619742,0.0,0.0,0.0,0.0,0.0,0.0,0.0,0.0,0.0
96987224766,5712,96992000000,honey/imu,2.73421584847e-07,-4.93110708328e-05,0.707113579897,0.707099980691,-1.0,-1.0,-1.0,-1.0,-1.0,-1.0,-1.0,-1.0,-1.0,1.57910087918e-05,-6.26874996619e-05,-7.8122917078e-05,0.0,0.0,0.0,0.0,0.0,0.0,0.0,0.0,0.0,0.000417090598026,0.000536533220782,-0.000139930871711,0.0,0.0,0.0,0.0,0.0,0.0,0.0,0.0,0.0
97007447798,5713,97008000000,honey/imu,7.12020009769e-07,-4.95771234513e-05,0.707113140654,0.707100419924,-1.0,-1.0,-1.0,-1.0,-1.0,-1.0,-1.0,-1.0,-1.0,1.51781874718e-05,-6.22019054951e-05,-7.74092844535e-05,0.0,0.0,0.0,0.0,0.0,0.0,0.0,0.0,0.0,0.000402111935579,0.00041008889192,-0.000108644211428,0.0,0.0,0.0,0.0,0.0,0.0,0.0,0.0,0.0
97017533666,5714,97024000000,honey/imu,1.14779029195e-06,-4.98442531945e-05,0.707112704041,0.707100856524,-1.0,-1.0,-1.0,-1.0,-1.0,-1.0,-1.0,-1.0,-1.0,1.47659824432e-05,-6.22063528595e-05,-7.74407004243e-05,0.0,0.0,0.0,0.0,0.0,0.0,0.0,0.0,0.0,0.00042291247692,0.000426207024595,-0.000121481388252,0.0,0.0,0.0,0.0,0.0,0.0,0.0,0.0,0.0
97027666822,5715,97040000000,honey/imu,1.58524539207e-06,-5.0117824031e-05,0.707112263263,0.707101297289,-1.0,-1.0,-1.0,-1.0,-1.0,-1.0,-1.0,-1.0,-1.0,1.44714096536e-05,-6.33199114999e-05,-7.78886627104e-05,0.0,0.0,0.0,0.0,0.0,0.0,0.0,0.0,0.0,0.000499756639874,0.000509861983573,-0.000140359745555,0.0,0.0,0.0,0.0,0.0,0.0,0.0,0.0,0.0
97047901217,5716,97056000000,honey/imu,2.03459397981e-06,-5.04016522241e-05,0.707111824758,0.70710173578,-1.0,-1.0,-1.0,-1.0,-1.0,-1.0,-1.0,-1.0,-1.0,1.48034936851e-05,-6.53314321721e-05,-7.72135874105e-05,0.0,0.0,0.0,0.0,0.0,0.0,0.0,0.0,0.0,0.000558324002366,0.000645930802705,-0.000115173477165,0.0,0.0,0.0,0.0,0.0,0.0,0.0,0.0,0.0
97058027730,5717,97072000000,honey/imu,2.50009337086e-06,-5.06917527097e-05,0.707111394221,0.7071021663,-1.0,-1.0,-1.0,-1.0,-1.0,-1.0,-1.0,-1.0,-1.0,1.58428372817e-05,-6.71766423334e-05,-7.5617760341e-05,0.0,0.0,0.0,0.0,0.0,0.0,0.0,0.0,0.0,0.000703713495953,0.000729749783867,-0.000171226016976,0.0,0.0,0.0,0.0,0.0,0.0,0.0,0.0,0.0
97078192070,5718,97088000000,honey/imu,2.9817529327e-06,-5.09812706489e-05,0.707110975333,0.707102585171,-1.0,-1.0,-1.0,-1.0,-1.0,-1.0,-1.0,-1.0,-1.0,1.743103223e-05,-6.83589218415e-05,-7.34694497224e-05,0.0,0.0,0.0,0.0,0.0,0.0,0.0,0.0,0.0,0.000731939231107,0.000834098670765,-0.000153738143396,0.0,0.0,0.0,0.0,0.0,0.0,0.0,0.0,0.0
97098355027,5719,97104000000,honey/imu,3.47766597957e-06,-5.1263883225e-05,0.707110569686,0.7071029908,-1.0,-1.0,-1.0,-1.0,-1.0,-1.0,-1.0,-1.0,-1.0,1.93668685148e-05,-6.88651616216e-05,-7.11146295993e-05,0.0,0.0,0.0,0.0,0.0,0.0,0.0,0.0,0.0,-0.00411688667245,-0.00310504120333,0.00125490920371,0.0,0.0,0.0,0.0,0.0,0.0,0.0,0.0,0.0
97118505052,5720,97120000000,honey/imu,3.9864351941e-06,-5.15359680927e-05,0.707110177449,0.707103383018,-1.0,-1.0,-1.0,-1.0,-1.0,-1.0,-1.0,-1.0,-1.0,2.14338273676e-05,-6.90573997421e-05,-6.87564965513e-05,0.0,0.0,0.0,0.0,0.0,0.0,0.0,0.0,0.0,0.00101732768031,0.00036757859702,-0.00040403995288,0.0,0.0,0.0,0.0,0.0,0.0,0.0,0.0,0.0
97128559627,5721,97136000000,honey/imu,4.50701864451e-06,-5.17963829488e-05,0.707109798282,0.707103762167,-1.0,-1.0,-1.0,-1.0,-1.0,-1.0,-1.0,-1.0,-1.0,2.35185052865e-05,-6.89181558787e-05,-6.64692686308e-05,0.0,0.0,0.0,0.0,0.0,0.0,0.0,0.0,0.0,0.000921003823733,0.000604309997126,-0.000301584921989,0.0,0.0,0.0,0.0,0.0,0.0,0.0,0.0,0.0
97148711856,5722,97152000000,honey/imu,5.03635896062e-06,-5.20423175486e-05,0.70710943157,0.70710412886,-1.0,-1.0,-1.0,-1.0,-1.0,-1.0,-1.0,-1.0,-1.0,2.55240815833e-05,-6.83499610081e-05,-6.43069000383e-05,0.0,0.0,0.0,0.0,0.0,0.0,0.0,0.0,0.0,0.000869355894466,0.000483805375732,-0.000305296988448,0.0,0.0,0.0,0.0,0.0,0.0,0.0,0.0,0.0
97158815592,5723,97168000000,honey/imu,5.57244304589e-06,-5.22737830764e-05,0.70710907646,0.707104483951,-1.0,-1.0,-1.0,-1.0,-1.0,-1.0,-1.0,-1.0,-1.0,2.73654205403e-05,-6.76774453037e-05,-6.22883210615e-05,0.0,0.0,0.0,0.0,0.0,0.0,0.0,0.0,0.0,0.000868310267188,0.000652116209396,-0.000265712827212,0.0,0.0,0.0,0.0,0.0,0.0,0.0,0.0,0.0
97182941840,5724,97176000000,honey/imu,6.11406335049e-06,-5.24927620345e-05,0.707108730298,0.707104830095,-1.0,-1.0,-1.0,-1.0,-1.0,-1.0,-1.0,-1.0,-1.0,2.8252375703e-05,-6.7351423601e-05,-6.13114332195e-05,0.0,0.0,0.0,0.0,0.0,0.0,0.0,0.0,0.0,-0.00431705630124,-0.00306753748433,0.00134862884648,0.0,0.0,0.0,0.0,0.0,0.0,0.0,0.0,0.0
97192996987,5725,97200000000,honey/imu,6.65869296261e-06,-5.27060154474e-05,0.707108384504,0.70710517587,-1.0,-1.0,-1.0,-1.0,-1.0,-1.0,-1.0,-1.0,-1.0,2.92712238281e-05,-6.71217434363e-05,-6.14137888438e-05,0.0,0.0,0.0,0.0,0.0,0.0,0.0,0.0,0.0,-0.000459896823386,-0.00106881916424,-1.91124384508e-05,0.0,0.0,0.0,0.0,0.0,0.0,0.0,0.0,0.0
97213147873,5726,97216000000,honey/imu,7.20597495926e-06,-5.29248891818e-05,0.707108031397,0.707105528957,-1.0,-1.0,-1.0,-1.0,-1.0,-1.0,-1.0,-1.0,-1.0,2.88098612281e-05,-6.8041523885e-05,-6.28642971844e-05,0.0,0.0,0.0,0.0,0.0,0.0,0.0,0.0,0.0,0.000463904673375,0.000844983420277,-3.0454065787e-05,0.0,0.0,0.0,0.0,0.0,0.0,0.0,0.0,0.0
97223254758,5727,97224000000,honey/imu,7.75667076396e-06,-5.31556467799e-05,0.707107669692,0.707105890639,-1.0,-1.0,-1.0,-1.0,-1.0,-1.0,-1.0,-1.0,-1.0,2.83802040485e-05,-6.86900261594e-05,-6.37473776639e-05,0.0,0.0,0.0,0.0,0.0,0.0,0.0,0.0,0.0,0.0045510906094,0.00573594962346,-0.000881867989536,0.0,0.0,0.0,0.0,0.0,0.0,0.0,0.0,0.0
97243369755,5728,97240000000,honey/imu,8.03435306322e-06,-5.32751287638e-05,0.707107487186,0.707106073134,-1.0,-1.0,-1.0,-1.0,-1.0,-1.0,-1.0,-1.0,-1.0,2.79632613841e-05,-7.02073532866e-05,-6.45273203309e-05,0.0,0.0,0.0,0.0,0.0,0.0,0.0,0.0,0.0,0.000387406362292,0.000595533905398,-1.18892850018e-05,0.0,0.0,0.0,0.0,0.0,0.0,0.0,0.0,0.0
97263479485,5729,97264000000,honey/imu,8.88541378477e-06,-5.3643476005e-05,0.707106946298,0.707106613984,-1.0,-1.0,-1.0,-1.0,-1.0,-1.0,-1.0,-1.0,-1.0,2.87768909948e-05,-7.25242892112e-05,-6.32238538809e-05,0.0,0.0,0.0,0.0,0.0,0.0,0.0,0.0,0.0,-0.00102625955168,-0.00132325987279,0.000160722256491,0.0,0.0,0.0,0.0,0.0,0.0,0.0,0.0,0.0
97273534990,5730,97280000000,honey/imu,9.46579120004e-06,-5.38917801709e-05,0.707106593715,0.707106966541,-1.0,-1.0,-1.0,-1.0,-1.0,-1.0,-1.0,-1.0,-1.0,2.95204620621e-05,-7.33916891158e-05,-6.20445545824e-05,0.0,0.0,0.0,0.0,0.0,0.0,0.0,0.0,0.0,0.000250613697092,0.000329779302612,-7.9696549226e-05,0.0,0.0,0.0,0.0,0.0,0.0,0.0,0.0,0.0
97293846043,5731,97288000000,honey/imu,1.00535711867e-05,-5.4139096321e-05,0.707106247947,0.707107312282,-1.0,-1.0,-1.0,-1.0,-1.0,-1.0,-1.0,-1.0,-1.0,2.98641199165e-05,-7.36874078374e-05,-6.14740226671e-05,0.0,0.0,0.0,0.0,0.0,0.0,0.0,0.0,0.0,-0.00370442424236,-0.00497715884375,0.000966853695273,0.0,0.0,0.0,0.0,0.0,0.0,0.0,0.0,0.0
97303953990,5732,97312000000,honey/imu,1.06500671232e-05,-5.4383605664e-05,0.707105910792,0.707107649408,-1.0,-1.0,-1.0,-1.0,-1.0,-1.0,-1.0,-1.0,-1.0,3.14488210616e-05,-7.44852352439e-05,-5.91263749407e-05,0.0,0.0,0.0,0.0,0.0,0.0,0.0,0.0,0.0,0.00156102286474,0.0020579755438,-0.000448215014232,0.0,0.0,0.0,0.0,0.0,0.0,0.0,0.0,0.0
97324065767,5733,97328000000,honey/imu,1.12573785437e-05,-5.46238235117e-05,0.707105584176,0.707107975995,-1.0,-1.0,-1.0,-1.0,-1.0,-1.0,-1.0,-1.0,-1.0,3.27597279605e-05,-7.50304377337e-05,-5.73040633406e-05,0.0,0.0,0.0,0.0,0.0,0.0,0.0,0.0,0.0,0.000335973831968,0.000437838571612,-9.92061308443e-05,0.0,0.0,0.0,0.0,0.0,0.0,0.0,0.0,0.0
97344305809,5734,97344000000,honey/imu,1.18748275643e-05,-5.48597958443e-05,0.707105267442,0.7071082927,-1.0,-1.0,-1.0,-1.0,-1.0,-1.0,-1.0,-1.0,-1.0,3.40405059602e-05,-7.55899175554e-05,-5.55514211715e-05,0.0,0.0,0.0,0.0,0.0,0.0,0.0,0.0,0.0,0.000338121311358,0.000477696534021,-5.90019800694e-05,0.0,0.0,0.0,0.0,0.0,0.0,0.0,0.0,0.0
97354360701,5735,97360000000,honey/imu,1.25038747333e-05,-5.50919631968e-05,0.707104961105,0.707108599007,-1.0,-1.0,-1.0,-1.0,-1.0,-1.0,-1.0,-1.0,-1.0,3.54640266928e-05,-7.63309206422e-05,-5.36399369841e-05,0.0,0.0,0.0,0.0,0.0,0.0,0.0,0.0,0.0,0.00022522219803,0.000734263850065,0.000295360543187,0.0,0.0,0.0,0.0,0.0,0.0,0.0,0.0,0.0
97374613192,5736,97376000000,honey/imu,1.31470808177e-05,-5.53200546244e-05,0.707104666874,0.707108893206,-1.0,-1.0,-1.0,-1.0,-1.0,-1.0,-1.0,-1.0,-1.0,3.71402591882e-05,-7.72682260897e-05,-5.14182657269e-05,0.0,0.0,0.0,0.0,0.0,0.0,0.0,0.0,0.0,-0.00327904079179,-0.00453739798353,0.000760655642154,0.0,0.0,0.0,0.0,0.0,0.0,0.0,0.0,0.0
97374613192,5737,97384000000,honey/imu,1.34746960367e-05,-5.54324550778e-05,0.707104524818,0.707109035247,-1.0,-1.0,-1.0,-1.0,-1.0,-1.0,-1.0,-1.0,-1.0,3.80427559124e-05,-7.77829051069e-05,-5.02260021263e-05,0.0,0.0,0.0,0.0,0.0,0.0,0.0,0.0,0.0,0.00475977543767,0.00549697232895,-0.00197970562797,0.0,0.0,0.0,0.0,0.0,0.0,0.0,0.0,0.0
97404837652,5738,97408000000,honey/imu,1.4484435766e-05,-5.57624161146e-05,0.70710412117,0.707109438846,-1.0,-1.0,-1.0,-1.0,-1.0,-1.0,-1.0,-1.0,-1.0,4.10857032327e-05,-7.95333063267e-05,-4.62103589054e-05,0.0,0.0,0.0,0.0,0.0,0.0,0.0,0.0,0.0,-0.000702133360392,-0.000815404234996,0.000287622474798,0.0,0.0,0.0,0.0,0.0,0.0,0.0,0.0,0.0
97414925216,5739,97424000000,honey/imu,1.51808232175e-05,-5.59760697579e-05,0.707103871579,0.707109688403,-1.0,-1.0,-1.0,-1.0,-1.0,-1.0,-1.0,-1.0,-1.0,4.31980720378e-05,-8.07368789691e-05,-4.34204620531e-05,0.0,0.0,0.0,0.0,0.0,0.0,0.0,0.0,0.0,0.000692268301472,0.000812870611871,-0.00027283620986,0.0,0.0,0.0,0.0,0.0,0.0,0.0,0.0,0.0
97435137019,5740,97440000000,honey/imu,1.58916150817e-05,-5.61847517167e-05,0.707103635768,0.70710992418,-1.0,-1.0,-1.0,-1.0,-1.0,-1.0,-1.0,-1.0,-1.0,4.44958969246e-05,-8.11992974833e-05,-4.13600304225e-05,0.0,0.0,0.0,0.0,0.0,0.0,0.0,0.0,0.0,0.000706440690233,0.000811308389119,-0.000312508308503,0.0,0.0,0.0,0.0,0.0,0.0,0.0,0.0,0.0
97455371064,5741,97456000000,honey/imu,1.66017291494e-05,-5.63905482702e-05,0.707103404204,0.70711015571,-1.0,-1.0,-1.0,-1.0,-1.0,-1.0,-1.0,-1.0,-1.0,4.44182434687e-05,-8.08498055053e-05,-4.11682034042e-05,0.0,0.0,0.0,0.0,0.0,0.0,0.0,0.0,0.0,0.000695725913186,0.000850616658497,-0.000240755069994,0.0,0.0,0.0,0.0,0.0,0.0,0.0,0.0,0.0
97465442364,5742,97472000000,honey/imu,1.73042491252e-05,-5.65988130727e-05,0.707103164431,0.707110395447,-1.0,-1.0,-1.0,-1.0,-1.0,-1.0,-1.0,-1.0,-1.0,4.32625892234e-05,-8.03622292675e-05,-4.31441027519e-05,0.0,0.0,0.0,0.0,0.0,0.0,0.0,0.0,0.0,-0.00340497002933,-0.00392436390399,0.00163452290842,0.0,0.0,0.0,0.0,0.0,0.0,0.0,0.0,0.0
97485615661,5743,97488000000,honey/imu,1.79943596592e-05,-5.68146145955e-05,0.707102905574,0.707110654267,-1.0,-1.0,-1.0,-1.0,-1.0,-1.0,-1.0,-1.0,-1.0,4.14242363756e-05,-8.00572026231e-05,-4.68650649735e-05,0.0,0.0,0.0,0.0,0.0,0.0,0.0,0.0,0.0,0.000682333996295,0.000772417276968,-0.000400566618072,0.0,0.0,0.0,0.0,0.0,0.0,0.0,0.0,0.0
97495703708,5744,97496000000,honey/imu,1.83350834706e-05,-5.69266201863e-05,0.707102766776,0.707110793045,-1.0,-1.0,-1.0,-1.0,-1.0,-1.0,-1.0,-1.0,-1.0,4.04298939009e-05,-8.00304391424e-05,-4.90731656481e-05,0.0,0.0,0.0,0.0,0.0,0.0,0.0,0.0,0.0,0.00475224042303,0.00537676320519,-0.00271822039516,0.0,0.0,0.0,0.0,0.0,0.0,0.0,0.0,0.0
97505738697,5745,97512000000,honey/imu,1.90135233568e-05,-5.71581449529e-05,0.707102473801,0.70711108598,-1.0,-1.0,-1.0,-1.0,-1.0,-1.0,-1.0,-1.0,-1.0,3.91897539397e-05,-8.05613668964e-05,-5.26983154796e-05,0.0,0.0,0.0,0.0,0.0,0.0,0.0,0.0,0.0,0.00068612500428,0.000399033467245,-0.000877429590017,0.0,0.0,0.0,0.0,0.0,0.0,0.0,0.0,0.0
97535990909,5746,97536000000,honey/imu,2.00399053382e-05,-5.75156579912e-05,0.707102017668,0.707111542049,-1.0,-1.0,-1.0,-1.0,-1.0,-1.0,-1.0,-1.0,-1.0,3.96760465762e-05,-8.20265164477e-05,-5.3901242324e-05,0.0,0.0,0.0,0.0,0.0,0.0,0.0,0.0,0.0,-0.000773710612269,-0.000676806219203,0.000726953785469,0.0,0.0,0.0,0.0,0.0,0.0,0.0,0.0,0.0
97546064037,5747,97552000000,honey/imu,2.07351950278e-05,-5.7755708438e-05,0.707101714677,0.707111844997,-1.0,-1.0,-1.0,-1.0,-1.0,-1.0,-1.0,-1.0,-1.0,4.04270493825e-05,-8.28420041563e-05,-5.33346407979e-05,0.0,0.0,0.0,0.0,0.0,0.0,0.0,0.0,0.0,0.000345548831107,0.000343157357841,-0.000255740454794,0.0,0.0,0.0,0.0,0.0,0.0,0.0,0.0,0.0
97566294624,5748,97568000000,honey/imu,2.1437915727e-05,-5.7996729052e-05,0.707101414715,0.707112144914,-1.0,-1.0,-1.0,-1.0,-1.0,-1.0,-1.0,-1.0,-1.0,4.08029042749e-05,-8.36450554088e-05,-5.31741365849e-05,0.0,0.0,0.0,0.0,0.0,0.0,0.0,0.0,0.0,0.00020025973322,0.000204682668828,-0.000191435488932,0.0,0.0,0.0,0.0,0.0,0.0,0.0,0.0,0.0
97576299949,5749,97584000000,honey/imu,2.21419362835e-05,-5.824329474e-05,0.707101110825,0.707112448757,-1.0,-1.0,-1.0,-1.0,-1.0,-1.0,-1.0,-1.0,-1.0,4.00670114881e-05,-8.39310483359e-05,-5.39730121633e-05,0.0,0.0,0.0,0.0,0.0,0.0,0.0,0.0,0.0,0.000216709054611,0.000202946730724,-0.000239768787036,0.0,0.0,0.0,0.0,0.0,0.0,0.0,0.0,0.0
97596441813,5750,97600000000,honey/imu,2.28315363519e-05,-5.849544932e-05,0.707100801793,0.707112757742,-1.0,-1.0,-1.0,-1.0,-1.0,-1.0,-1.0,-1.0,-1.0,3.79868573937e-05,-8.27218256111e-05,-5.47826741345e-05,0.0,0.0,0.0,0.0,0.0,0.0,0.0,0.0,0.0,-0.00170527508632,-0.00175883124196,0.00131202223417,0.0,0.0,0.0,0.0,0.0,0.0,0.0,0.0,0.0
97606524903,5751,97616000000,honey/imu,2.34909519758e-05,-5.87503241259e-05,0.707100490257,0.70711306923,-1.0,-1.0,-1.0,-1.0,-1.0,-1.0,-1.0,-1.0,-1.0,3.487314068e-05,-7.99332486394e-05,-5.5055899792e-05,0.0,0.0,0.0,0.0,0.0,0.0,0.0,0.0,0.0,0.000447426495186,0.000460950302208,-0.000200151742462,0.0,0.0,0.0,0.0,0.0,0.0,0.0,0.0,0.0
97626692329,5752,97632000000,honey/imu,2.41070955137e-05,-5.90028488037e-05,0.707100178432,0.707113381007,-1.0,-1.0,-1.0,-1.0,-1.0,-1.0,-1.0,-1.0,-1.0,3.11632934175e-05,-7.53790903472e-05,-5.52225991922e-05,0.0,0.0,0.0,0.0,0.0,0.0,0.0,0.0,0.0,0.000523700837696,0.000546853235363,-0.000236425330412,0.0,0.0,0.0,0.0,0.0,0.0,0.0,0.0,0.0
97646935860,5753,97648000000,honey/imu,2.46986128958e-05,-5.92588388874e-05,0.707100534429,0.707113024974,-1.0,-1.0,-1.0,-1.0,-1.0,-1.0,-1.0,-1.0,-1.0,3.01066864165e-05,-7.72417993353e-05,0.000181285096679,0.0,0.0,0.0,0.0,0.0,0.0,0.0,0.0,0.0,-0.000435087500372,0.000936252997194,-0.000236199001606,0.0,0.0,0.0,0.0,0.0,0.0,0.0,0.0,0.0
97657010759,5754,97664000000,honey/imu,2.53355862744e-05,-5.95351618074e-05,0.707104570407,0.707108988999,-1.0,-1.0,-1.0,-1.0,-1.0,-1.0,-1.0,-1.0,-1.0,3.28431303199e-05,-7.95804431544e-05,0.00100893331185,0.0,0.0,0.0,0.0,0.0,0.0,0.0,0.0,0.0,-0.000857474799075,0.000284724099779,0.000276478883674,0.0,0.0,0.0,0.0,0.0,0.0,0.0,0.0,0.0
97677263252,5755,97672000000,honey/imu,2.56518361797e-05,-5.96557284386e-05,0.707109095535,0.707104463848,-1.0,-1.0,-1.0,-1.0,-1.0,-1.0,-1.0,-1.0,-1.0,3.46884966112e-05,-7.7257565228e-05,0.00159987457058,0.0,0.0,0.0,0.0,0.0,0.0,0.0,0.0,0.0,0.000573591119331,-0.00155861795722,0.00115635520295,0.0,0.0,0.0,0.0,0.0,0.0,0.0,0.0,0.0
97687336337,5756,97696000000,honey/imu,2.63457206685e-05,-5.98955956437e-05,0.70713871429,0.707074843613,-1.0,-1.0,-1.0,-1.0,-1.0,-1.0,-1.0,-1.0,-1.0,1.97293415344e-05,-4.30942054785e-05,0.00454213161422,0.0,0.0,0.0,0.0,0.0,0.0,0.0,0.0,0.0,-0.00128032738313,0.00252298562257,-0.000197731028239,0.0,0.0,0.0,0.0,0.0,0.0,0.0,0.0,0.0
97707547231,5757,97712000000,honey/imu,2.64991492453e-05,-6.00144102281e-05,0.707174241913,0.707039310979,-1.0,-1.0,-1.0,-1.0,-1.0,-1.0,-1.0,-1.0,-1.0,-3.36292928178e-06,-1.79650156192e-05,0.00689752941867,0.0,0.0,0.0,0.0,0.0,0.0,0.0,0.0,0.0,-0.00241621591473,0.00255824856777,-6.98966503011e-05,0.0,0.0,0.0,0.0,0.0,0.0,0.0,0.0,0.0
97727746286,5758,97728000000,honey/imu,2.63537377853e-05,-6.01498393087e-05,0.707223822892,0.706989717055,-1.0,-1.0,-1.0,-1.0,-1.0,-1.0,-1.0,-1.0,-1.0,-3.16009689249e-05,6.82507746857e-06,0.00940102232894,0.0,0.0,0.0,0.0,0.0,0.0,0.0,0.0,0.0,-0.00263890510181,0.0026922880488,-6.59999766249e-05,0.0,0.0,0.0,0.0,0.0,0.0,0.0,0.0,0.0
97727746286,5759,97744000000,honey/imu,2.59109225783e-05,-6.03110824397e-05,0.707287791237,0.706925721741,-1.0,-1.0,-1.0,-1.0,-1.0,-1.0,-1.0,-1.0,-1.0,-5.91613009858e-05,3.01316183187e-05,0.0119497488177,0.0,0.0,0.0,0.0,0.0,0.0,0.0,0.0,0.0,-0.002544043749,0.00279905816517,-7.61944468068e-05,0.0,0.0,0.0,0.0,0.0,0.0,0.0,0.0,0.0
97758011311,5760,97760000000,honey/imu,2.52025511835e-05,-6.04913086426e-05,0.707366208962,0.706847255158,-1.0,-1.0,-1.0,-1.0,-1.0,-1.0,-1.0,-1.0,-1.0,-8.32756883619e-05,5.15869766461e-05,0.014505257206,0.0,0.0,0.0,0.0,0.0,0.0,0.0,0.0,0.0,-0.00235978925453,0.00289082446274,-0.000102787988875,0.0,0.0,0.0,0.0,0.0,0.0,0.0,0.0,0.0
97768428419,5761,97768000000,honey/imu,2.47561445657e-05,-6.05847800423e-05,0.70741083015,0.706802598399,-1.0,-1.0,-1.0,-1.0,-1.0,-1.0,-1.0,-1.0,-1.0,-9.44587861279e-05,6.2031544266e-05,0.0157822691007,0.0,0.0,0.0,0.0,0.0,0.0,0.0,0.0,0.0,-0.00226506855317,0.00292326183483,-0.000117308195542,0.0,0.0,0.0,0.0,0.0,0.0,0.0,0.0,0.0
97788642817,5762,97784000000,honey/imu,2.36928439091e-05,-6.07658302783e-05,0.707510831689,0.706702496663,-1.0,-1.0,-1.0,-1.0,-1.0,-1.0,-1.0,-1.0,-1.0,-0.000113694225732,8.27618909502e-05,0.0183216552591,0.0,0.0,0.0,0.0,0.0,0.0,0.0,0.0,0.0,-0.00221238675587,0.00296998507213,-0.00014713365536,0.0,0.0,0.0,0.0,0.0,0.0,0.0,0.0,0.0
97798758355,5763,97808000000,honey/imu,2.19066901613e-05,-6.08211860705e-05,0.707679860503,0.70653323408,-1.0,-1.0,-1.0,-1.0,-1.0,-1.0,-1.0,-1.0,-1.0,-0.000102897352173,0.000104499074837,0.0205057274668,0.0,0.0,0.0,0.0,0.0,0.0,0.0,0.0,0.0,0.00116308789196,0.00215568637521,-0.000114305603614,0.0,0.0,0.0,0.0,0.0,0.0,0.0,0.0,0.0
97818979364,5764,97824000000,honey/imu,2.07769818728e-05,-6.07824179526e-05,0.707799278569,0.706413602028,-1.0,-1.0,-1.0,-1.0,-1.0,-1.0,-1.0,-1.0,-1.0,-9.24503150963e-05,0.000102350616003,0.0213374169279,0.0,0.0,0.0,0.0,0.0,0.0,0.0,0.0,0.0,0.00336744015904,0.001313349707,-3.09260517969e-05,0.0,0.0,0.0,0.0,0.0,0.0,0.0,0.0,0.0
97839174881,5765,97840000000,honey/imu,1.96966867857e-05,-6.06716908168e-05,0.707923987556,0.706288626394,-1.0,-1.0,-1.0,-1.0,-1.0,-1.0,-1.0,-1.0,-1.0,-8.15097168113e-05,0.000107958909959,0.0223847362631,0.0,0.0,0.0,0.0,0.0,0.0,0.0,0.0,0.0,0.00215448072826,0.00149966101669,-5.50985951997e-05,0.0,0.0,0.0,0.0,0.0,0.0,0.0,0.0,0.0
97839174881,5766,97856000000,honey/imu,1.86147441083e-05,-6.04322341891e-05,0.708055542158,0.706156742672,-1.0,-1.0,-1.0,-1.0,-1.0,-1.0,-1.0,-1.0,-1.0,-7.01336000307e-05,0.000117995342926,0.0235540625244,0.0,0.0,0.0,0.0,0.0,0.0,0.0,0.0,0.0,0.00138952759693,0.00158973393436,-6.75614926754e-05,0.0,0.0,0.0,0.0,0.0,0.0,0.0,0.0,0.0
97869436099,5767,97872000000,honey/imu,1.75450709364e-05,-6.00742954545e-05,0.708193527245,0.706018359571,-1.0,-1.0,-1.0,-1.0,-1.0,-1.0,-1.0,-1.0,-1.0,-5.83658380114e-05,0.000129513130083,0.0247631407409,0.0,0.0,0.0,0.0,0.0,0.0,0.0,0.0,0.0,0.000996959213296,0.00158114008625,-6.63016033045e-05,0.0,0.0,0.0,0.0,0.0,0.0,0.0,0.0,0.0
97879528408,5768,97888000000,honey/imu,1.64331241633e-05,-5.95540651692e-05,0.708339645323,0.70587176105,-1.0,-1.0,-1.0,-1.0,-1.0,-1.0,-1.0,-1.0,-1.0,-4.89717597387e-05,0.000149678481167,0.0263116552794,0.0,0.0,0.0,0.0,0.0,0.0,0.0,0.0,0.0,-0.000780222178948,0.0018540484529,-0.000101775018603,0.0,0.0,0.0,0.0,0.0,0.0,0.0,0.0,0.0
97899681836,5769,97904000000,honey/imu,1.51910950088e-05,-5.88432389955e-05,0.708495345363,0.705715482263,-1.0,-1.0,-1.0,-1.0,-1.0,-1.0,-1.0,-1.0,-1.0,-4.47437666652e-05,0.000181789925252,0.0279612882424,0.0,0.0,0.0,0.0,0.0,0.0,0.0,0.0,0.0,-0.0032445749977,0.00178778066504,-0.000138282018567,0.0,0.0,0.0,0.0,0.0,0.0,0.0,0.0,0.0
97919864351,5770,97920000000,honey/imu,1.3715670843e-05,-5.78797005341e-05,0.708659047554,0.705551097215,-1.0,-1.0,-1.0,-1.0,-1.0,-1.0,-1.0,-1.0,-1.0,-4.27147594694e-05,0.000227857597682,0.0292651537833,0.0,0.0,0.0,0.0,0.0,0.0,0.0,0.0,0.0,-0.00595675174955,0.00129788823853,-0.000169565851892,0.0,0.0,0.0,0.0,0.0,0.0,0.0,0.0,0.0
97929978258,5771,97936000000,honey/imu,1.19664156123e-05,-5.66062549088e-05,0.708828038043,0.705381321794,-1.0,-1.0,-1.0,-1.0,-1.0,-1.0,-1.0,-1.0,-1.0,-3.83692175128e-05,0.000278608252051,0.0300889604925,0.0,0.0,0.0,0.0,0.0,0.0,0.0,0.0,0.0,-0.00807337948927,0.000787967490703,-0.000190442663506,0.0,0.0,0.0,0.0,0.0,0.0,0.0,0.0,0.0
97950222332,5772,97952000000,honey/imu,9.99589389734e-06,-5.50306145643e-05,0.708999772096,0.705208706724,-1.0,-1.0,-1.0,-1.0,-1.0,-1.0,-1.0,-1.0,-1.0,-3.01281142137e-05,0.000321941605403,0.0304923414442,0.0,0.0,0.0,0.0,0.0,0.0,0.0,0.0,0.0,-0.00927390718238,0.000394834398544,-0.000193019804273,0.0,0.0,0.0,0.0,0.0,0.0,0.0,0.0,0.0
97960266704,5773,97968000000,honey/imu,7.89067242995e-06,-5.32082296055e-05,0.709172411989,0.705035096417,-1.0,-1.0,-1.0,-1.0,-1.0,-1.0,-1.0,-1.0,-1.0,-2.0271281705e-05,0.000351775633091,0.0306053296282,0.0,0.0,0.0,0.0,0.0,0.0,0.0,0.0,0.0,-0.00972714771054,9.43418035001e-05,-0.00017916333603,0.0,0.0,0.0,0.0,0.0,0.0,0.0,0.0,0.0
97980507852,5774,97984000000,honey/imu,5.74842781505e-06,-5.12448623649e-05,0.709344963036,0.704861490476,-1.0,-1.0,-1.0,-1.0,-1.0,-1.0,-1.0,-1.0,-1.0,-1.13734320907e-05,0.000361052590154,0.0305860399422,0.0,0.0,0.0,0.0,0.0,0.0,0.0,0.0,0.0,-0.00960788851763,-8.37548833769e-05,-0.000159572523764,0.0,0.0,0.0,0.0,0.0,0.0,0.0,0.0,0.0
97990632647,5775,98000000000,honey/imu,3.67693149182e-06,-4.9261762882e-05,0.709517160672,0.704688155336,-1.0,-1.0,-1.0,-1.0,-1.0,-1.0,-1.0,-1.0,-1.0,-3.63944222391e-06,0.000355568934719,0.0305171750969,0.0,0.0,0.0,0.0,0.0,0.0,0.0,0.0,0.0,-0.00939133116648,-0.000160781093885,-0.000155226618911,0.0,0.0,0.0,0.0,0.0,0.0,0.0,0.0,0.0
98010832127,5776,98016000000,honey/imu,1.6782370067e-06,-4.72715839091e-05,0.709688675976,0.704515422793,-1.0,-1.0,-1.0,-1.0,-1.0,-1.0,-1.0,-1.0,-1.0,3.19247520942e-06,0.000351294344313,0.0303863723771,0.0,0.0,0.0,0.0,0.0,0.0,0.0,0.0,0.0,-0.0094683885446,-0.000238915196901,-0.000169458279561,0.0,0.0,0.0,0.0,0.0,0.0,0.0,0.0,0.0
98041064372,5777,98040000000,honey/imu,-1.29614094743e-06,-4.41822921006e-05,0.709943821068,0.704258311256,-1.0,-1.0,-1.0,-1.0,-1.0,-1.0,-1.0,-1.0,-1.0,1.18371287796e-05,0.000361888612107,0.030066773868,0.0,0.0,0.0,0.0,0.0,0.0,0.0,0.0,0.0,-0.00978870944887,-0.0003284920143,-0.000190836802568,0.0,0.0,0.0,0.0,0.0,0.0,0.0,0.0,0.0
98061296778,5778,98064000000,honey/imu,-4.42003416186e-06,-4.08161542991e-05,0.710195364195,0.704004646995,-1.0,-1.0,-1.0,-1.0,-1.0,-1.0,-1.0,-1.0,-1.0,1.90333632077e-05,0.000390602064864,0.0296337883066,0.0,0.0,0.0,0.0,0.0,0.0,0.0,0.0,0.0,-0.00849544907012,-0.000415123619693,-0.000181947245054,0.0,0.0,0.0,0.0,0.0,0.0,0.0,0.0,0.0
98071423923,5779,98072000000,honey/imu,-5.49960519318e-06,-3.96304113619e-05,0.710278448358,0.703920822392,-1.0,-1.0,-1.0,-1.0,-1.0,-1.0,-1.0,-1.0,-1.0,2.12766958259e-05,0.000399421564523,0.0295058826286,0.0,0.0,0.0,0.0,0.0,0.0,0.0,0.0,0.0,-0.00500753708399,-0.000404019160641,-0.000132318452635,0.0,0.0,0.0,0.0,0.0,0.0,0.0,0.0,0.0
98091621120,5780,98096000000,honey/imu,-8.80667397461e-06,-3.59578246719e-05,0.710526274204,0.703670670339,-1.0,-1.0,-1.0,-1.0,-1.0,-1.0,-1.0,-1.0,-1.0,2.53411647036e-05,0.000415857480575,0.0292534474046,0.0,0.0,0.0,0.0,0.0,0.0,0.0,0.0,0.0,0.00108197865385,-0.000292147204688,-9.26256662362e-06,0.0,0.0,0.0,0.0,0.0,0.0,0.0,0.0,0.0
98111857140,5781,98112000000,honey/imu,-1.10822224426e-05,-3.34098048996e-05,0.710689967136,0.703505344239,-1.0,-1.0,-1.0,-1.0,-1.0,-1.0,-1.0,-1.0,-1.0,2.69234368552e-05,0.000428988952245,0.0290070770623,0.0,0.0,0.0,0.0,0.0,0.0,0.0,0.0,0.0,-0.000889221734276,-0.000360295219456,-1.69952334153e-06,0.0,0.0,0.0,0.0,0.0,0.0,0.0,0.0,0.0
98121965846,5782,98128000000,honey/imu,-1.344626079e-05,-3.07725390781e-05,0.710851777214,0.70334184413,-1.0,-1.0,-1.0,-1.0,-1.0,-1.0,-1.0,-1.0,-1.0,2.63291625994e-05,0.000445680837921,0.0286504722242,0.0,0.0,0.0,0.0,0.0,0.0,0.0,0.0,0.0,-0.00483764235259,-0.000440206922672,-3.78794261053e-05,0.0,0.0,0.0,0.0,0.0,0.0,0.0,0.0,0.0
98142156911,5783,98136000000,honey/imu,-1.46723418629e-05,-2.94190021783e-05,0.710931794192,0.703260963601,-1.0,-1.0,-1.0,-1.0,-1.0,-1.0,-1.0,-1.0,-1.0,2.5296193364e-05,0.000454999058083,0.0284433532999,0.0,0.0,0.0,0.0,0.0,0.0,0.0,0.0,0.0,-0.00701502273964,-0.000473347578226,-6.30370956981e-05,0.0,0.0,0.0,0.0,0.0,0.0,0.0,0.0,0.0
98152232485,5784,98160000000,honey/imu,-1.85854537887e-05,-2.52282160351e-05,0.711167526354,0.703022580347,-1.0,-1.0,-1.0,-1.0,-1.0,-1.0,-1.0,-1.0,-1.0,1.55708449022e-05,0.00048715843821,0.0276738618676,0.0,0.0,0.0,0.0,0.0,0.0,0.0,0.0,0.0,-0.0112130485236,-0.000473767085319,-0.000113266617118,0.0,0.0,0.0,0.0,0.0,0.0,0.0,0.0,0.0
98172382507,5785,98176000000,honey/imu,-2.1400542161e-05,-2.23458453583e-05,0.711320845109,0.702867451484,-1.0,-1.0,-1.0,-1.0,-1.0,-1.0,-1.0,-1.0,-1.0,6.46949727034e-06,0.000507764840275,0.0271251793017,0.0,0.0,0.0,0.0,0.0,0.0,0.0,0.0,0.0,-0.0129882343825,-0.000452422436395,-0.000137664997923,0.0,0.0,0.0,0.0,0.0,0.0,0.0,0.0,0.0
98182490735,5786,98192000000,honey/imu,-2.43872510356e-05,-1.94072500231e-05,0.711471029224,0.702715428608,-1.0,-1.0,-1.0,-1.0,-1.0,-1.0,-1.0,-1.0,-1.0,-3.68286643008e-06,0.00052794380828,0.0265759576479,0.0,0.0,0.0,0.0,0.0,0.0,0.0,0.0,0.0,-0.0133703579247,-0.00041818906338,-0.000146859739862,0.0,0.0,0.0,0.0,0.0,0.0,0.0,0.0,0.0
98206941757,5787,98208000000,honey/imu,-2.75431399462e-05,-1.64120667367e-05,0.711618155129,0.702566438327,-1.0,-1.0,-1.0,-1.0,-1.0,-1.0,-1.0,-1.0,-1.0,-1.30374434983e-05,0.000547906210188,0.0260438138606,0.0,0.0,0.0,0.0,0.0,0.0,0.0,0.0,0.0,-0.0131652147451,-0.000388779792198,-0.000152337021399,0.0,0.0,0.0,0.0,0.0,0.0,0.0,0.0,0.0
98216995480,5788,98216000000,honey/imu,-2.91810998703e-05,-1.48906948816e-05,0.711690610973,0.702493041375,-1.0,-1.0,-1.0,-1.0,-1.0,-1.0,-1.0,-1.0,-1.0,-1.7243067472e-05,0.000557816644934,0.0257839292342,0.0,0.0,0.0,0.0,0.0,0.0,0.0,0.0,0.0,-0.0129775945765,-0.000381332527427,-0.000155559945164,0.0,0.0,0.0,0.0,0.0,0.0,0.0,0.0,0.0
98237105003,5789,98240000000,honey/imu,-3.43260101761e-05,-1.01928995676e-05,0.711903851387,0.702276943305,-1.0,-1.0,-1.0,-1.0,-1.0,-1.0,-1.0,-1.0,-1.0,-2.5349438028e-05,0.000590325351039,0.025064469765,0.0,0.0,0.0,0.0,0.0,0.0,0.0,0.0,0.0,-0.0124551799754,-0.000363548000748,-0.000117957890283,0.0,0.0,0.0,0.0,0.0,0.0,0.0,0.0,0.0
98247198139,5790,98256000000,honey/imu,-3.79446926863e-05,-6.9405436826e-06,0.712042752923,0.702136109683,-1.0,-1.0,-1.0,-1.0,-1.0,-1.0,-1.0,-1.0,-1.0,-2.96600981765e-05,0.000612081257295,0.0246178267998,0.0,0.0,0.0,0.0,0.0,0.0,0.0,0.0,0.0,-0.0121720238469,-0.000328413484809,-8.55562957001e-05,0.0,0.0,0.0,0.0,0.0,0.0,0.0,0.0,0.0
98267311663,5791,98272000000,honey/imu,-4.17010227717e-05,-3.59642751158e-06,0.712179232414,0.701997677465,-1.0,-1.0,-1.0,-1.0,-1.0,-1.0,-1.0,-1.0,-1.0,-3.35111393403e-05,0.000631396232816,0.0241976411341,0.0,0.0,0.0,0.0,0.0,0.0,0.0,0.0,0.0,-0.0120451691915,-0.000286036042358,-7.51039100716e-05,0.0,0.0,0.0,0.0,0.0,0.0,0.0,0.0,0.0
98287424269,5792,98288000000,honey/imu,-4.55704483527e-05,-1.83486778012e-07,0.712313429292,0.701861507973,-1.0,-1.0,-1.0,-1.0,-1.0,-1.0,-1.0,-1.0,-1.0,-3.73402877321e-05,0.000646328798381,0.0238021091805,0.0,0.0,0.0,0.0,0.0,0.0,0.0,0.0,0.0,-0.0120041007282,-0.000240305681836,-7.53335617372e-05,0.0,0.0,0.0,0.0,0.0,0.0,0.0,0.0,0.0
98297504120,5793,98296000000,honey/imu,-4.75402348634e-05,1.54100839983e-06,0.712379711319,0.701794232407,-1.0,-1.0,-1.0,-1.0,-1.0,-1.0,-1.0,-1.0,-1.0,-3.92974683568e-05,0.000652607334066,0.0236105429034,0.0,0.0,0.0,0.0,0.0,0.0,0.0,0.0,0.0,-0.0120082755092,-0.000216863727565,-7.89108379885e-05,0.0,0.0,0.0,0.0,0.0,0.0,0.0,0.0,0.0
98318019823,5794,98312000000,honey/imu,-5.15335083687e-05,5.00926303991e-06,0.712510761243,0.701661180651,-1.0,-1.0,-1.0,-1.0,-1.0,-1.0,-1.0,-1.0,-1.0,-4.32784819934e-05,0.000661248193578,0.0232554211454,0.0,0.0,0.0,0.0,0.0,0.0,0.0,0.0,0.0,-0.0120022653098,-0.000192973167036,-0.000102952404355,0.0,0.0,0.0,0.0,0.0,0.0,0.0,0.0,0.0
98328109282,5795,98336000000,honey/imu,-5.76133694845e-05,1.02411457313e-05,0.712703971165,0.701464928604,-1.0,-1.0,-1.0,-1.0,-1.0,-1.0,-1.0,-1.0,-1.0,-4.59551455697e-05,0.000667125922097,0.0228238902525,0.0,0.0,0.0,0.0,0.0,0.0,0.0,0.0,0.0,-0.0100043472298,-0.00015930841413,-0.000105535317932,0.0,0.0,0.0,0.0,0.0,0.0,0.0,0.0,0.0
98348632660,5796,98352000000,honey/imu,-6.16614372156e-05,1.37346921256e-05,0.712831288958,0.701335547004,-1.0,-1.0,-1.0,-1.0,-1.0,-1.0,-1.0,-1.0,-1.0,-4.41951959341e-05,0.000665331201358,0.0226644360159,0.0,0.0,0.0,0.0,0.0,0.0,0.0,0.0,0.0,-0.00260854029768,-0.000152451166879,-3.66250142414e-05,0.0,0.0,0.0,0.0,0.0,0.0,0.0,0.0,0.0
98358734745,5797,98368000000,honey/imu,-6.56717887242e-05,1.72184655766e-05,0.712958024132,0.701206710761,-1.0,-1.0,-1.0,-1.0,-1.0,-1.0,-1.0,-1.0,-1.0,-4.17685087614e-05,0.00066041044598,0.0225673062206,0.0,0.0,0.0,0.0,0.0,0.0,0.0,0.0,0.0,0.000819498462444,-0.000138730570258,2.58348450408e-05,0.0,0.0,0.0,0.0,0.0,0.0,0.0,0.0,0.0
98379009877,5798,98384000000,honey/imu,-6.96328351472e-05,2.06785546447e-05,0.71308426291,0.701078332794,-1.0,-1.0,-1.0,-1.0,-1.0,-1.0,-1.0,-1.0,-1.0,-3.97356424139e-05,0.000653811150889,0.0224906537744,0.0,0.0,0.0,0.0,0.0,0.0,0.0,0.0,0.0,0.00172032906293,-0.000137488372391,6.49396848294e-05,0.0,0.0,0.0,0.0,0.0,0.0,0.0,0.0,0.0
98399135644,5799,98400000000,honey/imu,-7.35424806554e-05,2.41056798462e-05,0.713210108716,0.700950308392,-1.0,-1.0,-1.0,-1.0,-1.0,-1.0,-1.0,-1.0,-1.0,-3.8262253915e-05,0.000645739401513,0.0224200022037,0.0,0.0,0.0,0.0,0.0,0.0,0.0,0.0,0.0,0.00127501094748,-0.000116479578243,8.36246316063e-05,0.0,0.0,0.0,0.0,0.0,0.0,0.0,0.0,0.0
98409214435,5800,98416000000,honey/imu,-7.73944476486e-05,2.74887192201e-05,0.713335440841,0.700822760828,-1.0,-1.0,-1.0,-1.0,-1.0,-1.0,-1.0,-1.0,-1.0,-3.7283051074e-05,0.000637015708643,0.0223250119822,0.0,0.0,0.0,0.0,0.0,0.0,0.0,0.0,0.0,-0.00243970044567,-6.74343277612e-05,7.11324395931e-05,0.0,0.0,0.0,0.0,0.0,0.0,0.0,0.0,0.0
98429365847,5801,98432000000,honey/imu,-8.12015143536e-05,3.08329427734e-05,0.713460103041,0.700695849727,-1.0,-1.0,-1.0,-1.0,-1.0,-1.0,-1.0,-1.0,-1.0,-3.70001829956e-05,0.000630384306647,0.0222040665987,0.0,0.0,0.0,0.0,0.0,0.0,0.0,0.0,0.0,-0.00699310784184,-2.13408339544e-06,4.14135072161e-05,0.0,0.0,0.0,0.0,0.0,0.0,0.0,0.0,0.0
98439490025,5802,98448000000,honey/imu,-8.49849568352e-05,3.41514895914e-05,0.713583995,0.70056967797,-1.0,-1.0,-1.0,-1.0,-1.0,-1.0,-1.0,-1.0,-1.0,-3.73074676077e-05,0.000626777477693,0.022069225054,0.0,0.0,0.0,0.0,0.0,0.0,0.0,0.0,0.0,-0.0106505963156,5.55669715318e-05,1.12477268024e-05,0.0,0.0,0.0,0.0,0.0,0.0,0.0,0.0,0.0
98459652808,5803,98464000000,honey/imu,-8.87618248063e-05,3.74568398836e-05,0.713707098797,0.700444264625,-1.0,-1.0,-1.0,-1.0,-1.0,-1.0,-1.0,-1.0,-1.0,-3.79858125119e-05,0.000625422441248,0.0219336115547,0.0,0.0,0.0,0.0,0.0,0.0,0.0,0.0,0.0,-0.0127878780281,9.66307656761e-05,-1.06711197887e-05,0.0,0.0,0.0,0.0,0.0,0.0,0.0,0.0,0.0
98479920011,5804,98480000000,honey/imu,-9.25399844105e-05,4.07500050117e-05,0.71382944677,0.70031957755,-1.0,-1.0,-1.0,-1.0,-1.0,-1.0,-1.0,-1.0,-1.0,-3.95078095596e-05,0.000624120436361,0.0218051740919,0.0,0.0,0.0,0.0,0.0,0.0,0.0,0.0,0.0,-0.0136196585845,0.000136328282486,-2.0764370288e-05,0.0,0.0,0.0,0.0,0.0,0.0,0.0,0.0,0.0
98490049372,5805,98496000000,honey/imu,-9.63166223635e-05,4.40190270151e-05,0.713951105372,0.700195549774,-1.0,-1.0,-1.0,-1.0,-1.0,-1.0,-1.0,-1.0,-1.0,-4.13389413601e-05,0.000621643876543,0.0216901946999,0.0,0.0,0.0,0.0,0.0,0.0,0.0,0.0,0.0,-0.0136210696064,0.000176936411901,-2.38879349024e-05,0.0,0.0,0.0,0.0,0.0,0.0,0.0,0.0,0.0
98510194647,5806,98512000000,honey/imu,-0.000100082529063,4.72631875735e-05,0.714072168371,0.700072086365,-1.0,-1.0,-1.0,-1.0,-1.0,-1.0,-1.0,-1.0,-1.0,-4.24043221307e-05,0.000618324948359,0.0215917879573,0.0,0.0,0.0,0.0,0.0,0.0,0.0,0.0,0.0,-0.0132351334652,0.000214487195082,-2.65985940557e-05,0.0,0.0,0.0,0.0,0.0,0.0,0.0,0.0,0.0
98520277323,5807,98528000000,honey/imu,-0.000103828704796,5.04849830893e-05,0.714192727882,0.699949093943,-1.0,-1.0,-1.0,-1.0,-1.0,-1.0,-1.0,-1.0,-1.0,-4.22686399929e-05,0.000614592793896,0.0215098159472,0.0,0.0,0.0,0.0,0.0,0.0,0.0,0.0,0.0,-0.012797008648,0.00024071036395,-2.98640114163e-05,0.0,0.0,0.0,0.0,0.0,0.0,0.0,0.0,0.0
98540540599,5808,98544000000,honey/imu,-0.000107544751292,5.36930755923e-05,0.714312873388,0.699826481682,-1.0,-1.0,-1.0,-1.0,-1.0,-1.0,-1.0,-1.0,-1.0,-4.03566210879e-05,0.000610588069207,0.0214432096491,0.0,0.0,0.0,0.0,0.0,0.0,0.0,0.0,0.0,-0.0124545646211,0.000235154114127,-2.60292193461e-05,0.0,0.0,0.0,0.0,0.0,0.0,0.0,0.0,0.0
98550668041,5809,98560000000,honey/imu,-0.000111216936148,5.6892098624e-05,0.714432680187,0.699704173115,-1.0,-1.0,-1.0,-1.0,-1.0,-1.0,-1.0,-1.0,-1.0,-3.71851448069e-05,0.000605416214214,0.0213892142234,0.0,0.0,0.0,0.0,0.0,0.0,0.0,0.0,0.0,-0.0122491253145,0.000210509141238,-1.1152411486e-05,0.0,0.0,0.0,0.0,0.0,0.0,0.0,0.0,0.0
98580945203,5810,98568000000,honey/imu,-0.000114834971204,6.00766302876e-05,0.714552194623,0.699582121243,-1.0,-1.0,-1.0,-1.0,-1.0,-1.0,-1.0,-1.0,-1.0,-3.54609329301e-05,0.000602365992822,0.0213649668315,0.0,0.0,0.0,0.0,0.0,0.0,0.0,0.0,0.0,-0.0121948519177,0.000209784900508,-2.80568330724e-06,0.0,0.0,0.0,0.0,0.0,0.0,0.0,0.0,0.0
98591035998,5811,98592000000,honey/imu,-0.000118390354862,6.32416790849e-05,0.714671462703,0.699460279345,-1.0,-1.0,-1.0,-1.0,-1.0,-1.0,-1.0,-1.0,-1.0,-3.00079248565e-05,0.000591804572578,0.0213044480546,0.0,0.0,0.0,0.0,0.0,0.0,0.0,0.0,0.0,-0.0121793095442,0.000165100145497,6.60111743664e-06,0.0,0.0,0.0,0.0,0.0,0.0,0.0,0.0,0.0
98601111273,5812,98608000000,honey/imu,-0.000121885652354,6.6383212303e-05,0.714790542096,0.699338588716,-1.0,-1.0,-1.0,-1.0,-1.0,-1.0,-1.0,-1.0,-1.0,-2.70875543315e-05,0.00058391290603,0.0212768160671,0.0,0.0,0.0,0.0,0.0,0.0,0.0,0.0,0.0,-0.00917548938212,0.000102639802993,2.03876041287e-05,0.0,0.0,0.0,0.0,0.0,0.0,0.0,0.0,0.0
98621261766,5813,98624000000,honey/imu,-0.000125318356695,6.94861405531e-05,0.714909486054,0.699216995086,-1.0,-1.0,-1.0,-1.0,-1.0,-1.0,-1.0,-1.0,-1.0,-2.54858128383e-05,0.000574811485119,0.0212586782245,0.0,0.0,0.0,0.0,0.0,0.0,0.0,0.0,0.0,-0.00269251304296,7.80889873275e-06,4.12399592563e-05,0.0,0.0,0.0,0.0,0.0,0.0,0.0,0.0,0.0
98631387614,5814,98640000000,honey/imu,-0.000128703888834,7.25484445867e-05,0.715028349154,0.699095442753,-1.0,-1.0,-1.0,-1.0,-1.0,-1.0,-1.0,-1.0,-1.0,-2.52528339268e-05,0.000568653235549,0.0212505635774,0.0,0.0,0.0,0.0,0.0,0.0,0.0,0.0,0.0,0.00306873166222,-8.33773042073e-05,5.71706239724e-05,0.0,0.0,0.0,0.0,0.0,0.0,0.0,0.0,0.0
98651602543,5815,98656000000,honey/imu,-0.000132067382591,7.55917919022e-05,0.715147178449,0.698973883632,-1.0,-1.0,-1.0,-1.0,-1.0,-1.0,-1.0,-1.0,-1.0,-2.45001484824e-05,0.000564346074915,0.021248696717,0.0,0.0,0.0,0.0,0.0,0.0,0.0,0.0,0.0,0.0044654017058,-0.000102448955601,6.03956324289e-05,0.0,0.0,0.0,0.0,0.0,0.0,0.0,0.0,0.0
98661668891,5816,98672000000,honey/imu,-0.000135382808742,7.86174243601e-05,0.715265989676,0.698852301637,-1.0,-1.0,-1.0,-1.0,-1.0,-1.0,-1.0,-1.0,-1.0,-2.1062997754e-05,0.000558327475275,0.0212505349284,0.0,0.0,0.0,0.0,0.0,0.0,0.0,0.0,0.0,0.00101572473973,-2.2274734268e-05,4.82645260435e-05,0.0,0.0,0.0,0.0,0.0,0.0,0.0,0.0,0.0
98681875811,5817,98688000000,honey/imu,-0.000138633843434,8.16429935123e-05,0.715384815482,0.698730663341,-1.0,-1.0,-1.0,-1.0,-1.0,-1.0,-1.0,-1.0,-1.0,-1.49059736796e-05,0.000553169916139,0.0212585689972,0.0,0.0,0.0,0.0,0.0,0.0,0.0,0.0,0.0,-0.00448338118227,9.4340056351e-05,2.5083012378e-05,0.0,0.0,0.0,0.0,0.0,0.0,0.0,0.0,0.0
98702113005,5818,98704000000,honey/imu,-0.000141824465965,8.46930962498e-05,0.715503692918,0.698608930757,-1.0,-1.0,-1.0,-1.0,-1.0,-1.0,-1.0,-1.0,-1.0,-7.20392542528e-06,0.000550598972152,0.0212729668916,0.0,0.0,0.0,0.0,0.0,0.0,0.0,0.0,0.0,-0.00959868460278,0.00019333005208,2.84282278985e-06,0.0,0.0,0.0,0.0,0.0,0.0,0.0,0.0,0.0
98712252505,5819,98720000000,honey/imu,-0.00014496221184,8.77860231777e-05,0.715622652767,0.698487072269,-1.0,-1.0,-1.0,-1.0,-1.0,-1.0,-1.0,-1.0,-1.0,1.51550365998e-06,0.000549813669848,0.0212925745588,0.0,0.0,0.0,0.0,0.0,0.0,0.0,0.0,0.0,-0.0129057404968,0.000266156702651,-1.27059050165e-05,0.0,0.0,0.0,0.0,0.0,0.0,0.0,0.0,0.0
98732487125,5820,98736000000,honey/imu,-0.00014804783357,9.09294981064e-05,0.715741715071,0.698365067226,-1.0,-1.0,-1.0,-1.0,-1.0,-1.0,-1.0,-1.0,-1.0,1.03840833373e-05,0.000549691252684,0.0213147822483,0.0,0.0,0.0,0.0,0.0,0.0,0.0,0.0,0.0,-0.0143696290364,0.000327346195598,-1.40089597093e-05,0.0,0.0,0.0,0.0,0.0,0.0,0.0,0.0,0.0
98742604350,5821,98752000000,honey/imu,-0.000151092712871,9.41226196131e-05,0.715860882043,0.698242913227,-1.0,-1.0,-1.0,-1.0,-1.0,-1.0,-1.0,-1.0,-1.0,1.79051508988e-05,0.000550936716665,0.0213372029247,0.0,0.0,0.0,0.0,0.0,0.0,0.0,0.0,0.0,-0.0145847399024,0.000376007591041,4.93435672399e-07,0.0,0.0,0.0,0.0,0.0,0.0,0.0,0.0,0.0
98762843711,5822,98768000000,honey/imu,-0.00015411976239,9.73667823749e-05,0.715980151717,0.698120612154,-1.0,-1.0,-1.0,-1.0,-1.0,-1.0,-1.0,-1.0,-1.0,2.35700780473e-05,0.000554296084498,0.0213591226319,0.0,0.0,0.0,0.0,0.0,0.0,0.0,0.0,0.0,-0.0141779474657,0.000404845278106,1.97844585905e-05,0.0,0.0,0.0,0.0,0.0,0.0,0.0,0.0,0.0
98783049898,5823,98784000000,honey/imu,-0.000157146156245,0.000100661652136,0.716099519254,0.697998168835,-1.0,-1.0,-1.0,-1.0,-1.0,-1.0,-1.0,-1.0,-1.0,2.79972913399e-05,0.000558668811791,0.0213801580687,0.0,0.0,0.0,0.0,0.0,0.0,0.0,0.0,0.0,-0.0136131399112,0.000416204835709,3.22641471113e-05,0.0,0.0,0.0,0.0,0.0,0.0,0.0,0.0,0.0
98793129584,5824,98800000000,honey/imu,-0.000160173678195,0.000104003156597,0.716218979206,0.697875588735,-1.0,-1.0,-1.0,-1.0,-1.0,-1.0,-1.0,-1.0,-1.0,3.20427097366e-05,0.000562622404921,0.0214002103146,0.0,0.0,0.0,0.0,0.0,0.0,0.0,0.0,0.0,-0.0131526331931,0.000415120768699,3.51730099797e-05,0.0,0.0,0.0,0.0,0.0,0.0,0.0,0.0,0.0
98813287943,5825,98816000000,honey/imu,-0.000163198649506,0.000107386076569,0.716338525375,0.697752878101,-1.0,-1.0,-1.0,-1.0,-1.0,-1.0,-1.0,-1.0,-1.0,3.59037915858e-05,0.000565870101144,0.0214190856593,0.0,0.0,0.0,0.0,0.0,0.0,0.0,0.0,0.0,-0.0128779694491,0.000406420348002,3.46019099549e-05,0.0,0.0,0.0,0.0,0.0,0.0,0.0,0.0,0.0
98833533808,5826,98840000000,honey/imu,-0.000167725725317,0.00011253309384,0.716517998523,0.697568575122,-1.0,-1.0,-1.0,-1.0,-1.0,-1.0,-1.0,-1.0,-1.0,4.20440385833e-05,0.000570103485359,0.021447074204,0.0,0.0,0.0,0.0,0.0,0.0,0.0,0.0,0.0,-0.0127682296285,0.000405921632711,3.27909807572e-05,0.0,0.0,0.0,0.0,0.0,0.0,0.0,0.0,0.0
98863861204,5827,98864000000,honey/imu,-0.000172223174823,0.000117776324076,0.716697684378,0.697383958573,-1.0,-1.0,-1.0,-1.0,-1.0,-1.0,-1.0,-1.0,-1.0,4.98275355906e-05,0.000573152897332,0.0214799934886,0.0,0.0,0.0,0.0,0.0,0.0,0.0,0.0,0.0,-0.012779138327,0.000408328086915,3.21642165897e-05,0.0,0.0,0.0,0.0,0.0,0.0,0.0,0.0,0.0
98873991151,5828,98880000000,honey/imu,-0.000175184393193,0.000121299588557,0.716817595202,0.697260704332,-1.0,-1.0,-1.0,-1.0,-1.0,-1.0,-1.0,-1.0,-1.0,5.40105318665e-05,0.000569973853608,0.0214984797952,0.0,0.0,0.0,0.0,0.0,0.0,0.0,0.0,0.0,-0.00965487265921,0.000284999881405,4.31624956304e-05,0.0,0.0,0.0,0.0,0.0,0.0,0.0,0.0,0.0
98894185193,5829,98896000000,honey/imu,-0.000178082995782,0.000124799032219,0.716937561967,0.697137350135,-1.0,-1.0,-1.0,-1.0,-1.0,-1.0,-1.0,-1.0,-1.0,5.69372921633e-05,0.000561321128456,0.0215123122165,0.0,0.0,0.0,0.0,0.0,0.0,0.0,0.0,0.0,-0.00588017954125,0.000159652626012,5.59831094954e-05,0.0,0.0,0.0,0.0,0.0,0.0,0.0,0.0,0.0
98904288236,5830,98912000000,honey/imu,-0.000180913425127,0.000128252001992,0.71705759585,0.697013884407,-1.0,-1.0,-1.0,-1.0,-1.0,-1.0,-1.0,-1.0,-1.0,5.83416367197e-05,0.000551588515241,0.0215301675575,0.0,0.0,0.0,0.0,0.0,0.0,0.0,0.0,0.0,-0.00594829778789,0.000113663795733,6.93064562826e-05,0.0,0.0,0.0,0.0,0.0,0.0,0.0,0.0,0.0
98924521122,5831,98928000000,honey/imu,-0.000183691929793,0.000131660782185,0.717177745098,0.6968902574,-1.0,-1.0,-1.0,-1.0,-1.0,-1.0,-1.0,-1.0,-1.0,5.87889312359e-05,0.000543459808524,0.0215573035273,0.0,0.0,0.0,0.0,0.0,0.0,0.0,0.0,0.0,-0.00791977868091,0.000121990405776,7.75058168806e-05,0.0,0.0,0.0,0.0,0.0,0.0,0.0,0.0,0.0
98934657067,5832,98944000000,honey/imu,-0.0001864284557,0.000135030781969,0.717298064447,0.696766412617,-1.0,-1.0,-1.0,-1.0,-1.0,-1.0,-1.0,-1.0,-1.0,5.89075280372e-05,0.000536553859986,0.0215935905815,0.0,0.0,0.0,0.0,0.0,0.0,0.0,0.0,0.0,-0.0102716130003,0.000157000928678,8.13143419113e-05,0.0,0.0,0.0,0.0,0.0,0.0,0.0,0.0,0.0
98954863517,5833,98960000000,honey/imu,-0.000189128281705,0.000138365338276,0.717418592127,0.696642310483,-1.0,-1.0,-1.0,-1.0,-1.0,-1.0,-1.0,-1.0,-1.0,5.89146238651e-05,0.000530231925186,0.0216358487677,0.0,0.0,0.0,0.0,0.0,0.0,0.0,0.0,0.0,-0.0121282080208,0.000195862699117,8.18563242252e-05,0.0,0.0,0.0,0.0,0.0,0.0,0.0,0.0,0.0
98964956423,5834,98976000000,honey/imu,-0.000191791973274,0.000141665161196,0.717539347142,0.696517931176,-1.0,-1.0,-1.0,-1.0,-1.0,-1.0,-1.0,-1.0,-1.0,5.89538672109e-05,0.000523910330143,0.0216808174433,0.0,0.0,0.0,0.0,0.0,0.0,0.0,0.0,0.0,-0.0132048338944,0.000224857961822,8.06373294269e-05,0.0,0.0,0.0,0.0,0.0,0.0,0.0,0.0,0.0
98985180875,5835,98992000000,honey/imu,-0.000194417722993,0.000144928957279,0.717660334296,0.696393269479,-1.0,-1.0,-1.0,-1.0,-1.0,-1.0,-1.0,-1.0,-1.0,5.90011016496e-05,0.000517263230372,0.0217262943444,0.0,0.0,0.0,0.0,0.0,0.0,0.0,0.0,0.0,-0.0135923257304,0.000239868128191,7.93809262389e-05,0.0,0.0,0.0,0.0,0.0,0.0,0.0,0.0,0.0
99005404942,5836,99008000000,honey/imu,-0.000197005647625,0.000148156376991,0.717781553965,0.696268324733,-1.0,-1.0,-1.0,-1.0,-1.0,-1.0,-1.0,-1.0,-1.0,5.90184242121e-05,0.000511003374608,0.0217722054486,0.0,0.0,0.0,0.0,0.0,0.0,0.0,0.0,0.0,-0.0135423877717,0.000245020312464,7.77123521165e-05,0.0,0.0,0.0,0.0,0.0,0.0,0.0,0.0,0.0
99015521344,5837,99024000000,honey/imu,-0.000199565324766,0.000151357140174,0.717903010965,0.696143091693,-1.0,-1.0,-1.0,-1.0,-1.0,-1.0,-1.0,-1.0,-1.0,5.91138685852e-05,0.000506952516112,0.0218187796648,0.0,0.0,0.0,0.0,0.0,0.0,0.0,0.0,0.0,-0.013303161699,0.000247391437122,7.34857569161e-05,0.0,0.0,0.0,0.0,0.0,0.0,0.0,0.0,0.0
99025598502,5838,99040000000,honey/imu,-0.000202111925507,0.000154547518392,0.718024702251,0.696017573214,-1.0,-1.0,-1.0,-1.0,-1.0,-1.0,-1.0,-1.0,-1.0,5.9327154192e-05,0.000505240021804,0.0218641049214,0.0,0.0,0.0,0.0,0.0,0.0,0.0,0.0,0.0,-0.0130334612068,0.000246371924779,6.84024757665e-05,0.0,0.0,0.0,0.0,0.0,0.0,0.0,0.0,0.0
99055964793,5839,99048000000,honey/imu,-0.00020338256322,0.000156141221703,0.718085631469,0.695954711266,-1.0,-1.0,-1.0,-1.0,-1.0,-1.0,-1.0,-1.0,-1.0,5.94526401491e-05,0.000504748855118,0.0218860909072,0.0,0.0,0.0,0.0,0.0,0.0,0.0,0.0,0.0,-0.0129050759008,0.000243000587183,6.60556965574e-05,0.0,0.0,0.0,0.0,0.0,0.0,0.0,0.0,0.0
99066040322,5840,99072000000,honey/imu,-0.00020713425274,0.000160879734949,0.718268588323,0.695765884649,-1.0,-1.0,-1.0,-1.0,-1.0,-1.0,-1.0,-1.0,-1.0,6.07456772381e-05,0.000495299527343,0.0219206622734,0.0,0.0,0.0,0.0,0.0,0.0,0.0,0.0,0.0,-0.00608793895055,0.000132337385604,5.7900648131e-05,0.0,0.0,0.0,0.0,0.0,0.0,0.0,0.0,0.0
99086299929,5841,99088000000,honey/imu,-0.00020958380868,0.000163995123938,0.71839066517,0.695639835962,-1.0,-1.0,-1.0,-1.0,-1.0,-1.0,-1.0,-1.0,-1.0,6.0878010682e-05,0.000488804525339,0.0219386540486,0.0,0.0,0.0,0.0,0.0,0.0,0.0,0.0,0.0,-0.00585619076298,0.000139616299931,5.60933330915e-05,0.0,0.0,0.0,0.0,0.0,0.0,0.0,0.0,0.0
99096426710,5842,99104000000,honey/imu,-0.000212003917497,0.000167076141025,0.718512821939,0.695513660433,-1.0,-1.0,-1.0,-1.0,-1.0,-1.0,-1.0,-1.0,-1.0,6.01134675286e-05,0.000483327699204,0.021957702141,0.0,0.0,0.0,0.0,0.0,0.0,0.0,0.0,0.0,-0.00774597538187,0.000189591795677,5.73616843993e-05,0.0,0.0,0.0,0.0,0.0,0.0,0.0,0.0,0.0
99116623657,5843,99120000000,honey/imu,-0.000214401620566,0.00017011933276,0.718635074815,0.695387341225,-1.0,-1.0,-1.0,-1.0,-1.0,-1.0,-1.0,-1.0,-1.0,5.84349591375e-05,0.000477892224579,0.0219797558395,0.0,0.0,0.0,0.0,0.0,0.0,0.0,0.0,0.0,-0.010039463877,0.000241962615064,6.23015196188e-05,0.0,0.0,0.0,0.0,0.0,0.0,0.0,0.0,0.0
99126710440,5844,99136000000,honey/imu,-0.000216777626661,0.000173116309657,0.718757440146,0.695260861313,-1.0,-1.0,-1.0,-1.0,-1.0,-1.0,-1.0,-1.0,-1.0,5.60158042541e-05,0.000471666369383,0.0220045337801,0.0,0.0,0.0,0.0,0.0,0.0,0.0,0.0,0.0,-0.0118916636091,0.000277819737822,6.78167780975e-05,0.0,0.0,0.0,0.0,0.0,0.0,0.0,0.0,0.0
99146859206,5845,99152000000,honey/imu,-0.00021912884293,0.000176058500109,0.718879929074,0.695134209028,-1.0,-1.0,-1.0,-1.0,-1.0,-1.0,-1.0,-1.0,-1.0,5.31784379488e-05,0.000464436008169,0.0220310748872,0.0,0.0,0.0,0.0,0.0,0.0,0.0,0.0,0.0,-0.0129914100115,0.000295179678588,7.17285730562e-05,0.0,0.0,0.0,0.0,0.0,0.0,0.0,0.0,0.0
99177065163,5846,99176000000,honey/imu,-0.000222600896697,0.000180356668334,0.719063905195,0.694943895697,-1.0,-1.0,-1.0,-1.0,-1.0,-1.0,-1.0,-1.0,-1.0,4.86729765483e-05,0.000452252601668,0.0220721514414,0.0,0.0,0.0,0.0,0.0,0.0,0.0,0.0,0.0,-0.0134287273333,0.000300236248282,7.3615306823e-05,0.0,0.0,0.0,0.0,0.0,0.0,0.0,0.0,0.0
99187169839,5847,99200000000,honey/imu,-0.000225991779474,0.000184505389662,0.719248158256,0.694753194834,-1.0,-1.0,-1.0,-1.0,-1.0,-1.0,-1.0,-1.0,-1.0,4.48812299498e-05,0.000437299585331,0.0221078234624,0.0,0.0,0.0,0.0,0.0,0.0,0.0,0.0,0.0,-0.011138240535,0.000256742618619,7.18946660349e-05,0.0,0.0,0.0,0.0,0.0,0.0,0.0,0.0,0.0
99211240392,5848,99216000000,honey/imu,-0.000228177136359,0.000187177354646,0.719371073668,0.694625921824,-1.0,-1.0,-1.0,-1.0,-1.0,-1.0,-1.0,-1.0,-1.0,4.39508821031e-05,0.000424880797276,0.0221179863178,0.0,0.0,0.0,0.0,0.0,0.0,0.0,0.0,0.0,-0.00315899999263,8.44066527726e-05,5.89461837914e-05,0.0,0.0,0.0,0.0,0.0,0.0,0.0,0.0,0.0
99231399162,5849,99232000000,honey/imu,-0.00023030357778,0.000189791496634,0.719493979017,0.69449861418,-1.0,-1.0,-1.0,-1.0,-1.0,-1.0,-1.0,-1.0,-1.0,4.40175167403e-05,0.0004166603593,0.0221189992839,0.0,0.0,0.0,0.0,0.0,0.0,0.0,0.0,0.0,0.00294202681788,-7.48084075667e-05,3.63360375647e-05,0.0,0.0,0.0,0.0,0.0,0.0,0.0,0.0,0.0
99241491822,5850,99240000000,honey/imu,-0.000231357336721,0.000191090971105,0.719555420239,0.694434955314,-1.0,-1.0,-1.0,-1.0,-1.0,-1.0,-1.0,-1.0,-1.0,4.42020120638e-05,0.000414647054371,0.0221182784871,0.0,0.0,0.0,0.0,0.0,0.0,0.0,0.0,0.0,0.0053491999974,-0.00014848242781,2.29678523386e-05,0.0,0.0,0.0,0.0,0.0,0.0,0.0,0.0,0.0
99261604361,5851,99264000000,honey/imu,-0.000234446832016,0.000194949955909,0.719739710898,0.6942439453,-1.0,-1.0,-1.0,-1.0,-1.0,-1.0,-1.0,-1.0,-1.0,4.69001726155e-05,0.000404806817837,0.0221184878794,0.0,0.0,0.0,0.0,0.0,0.0,0.0,0.0,0.0,0.00348105044648,-0.000118739576204,2.27537753944e-05,0.0,0.0,0.0,0.0,0.0,0.0,0.0,0.0,0.0
99271659392,5852,99280000000,honey/imu,-0.00023644247617,0.000197489790804,0.719862555871,0.694116564957,-1.0,-1.0,-1.0,-1.0,-1.0,-1.0,-1.0,-1.0,-1.0,4.9365594131e-05,0.000397332885775,0.0221226711529,0.0,0.0,0.0,0.0,0.0,0.0,0.0,0.0,0.0,0.00137622274771,-7.50082040671e-05,2.27284754924e-05,0.0,0.0,0.0,0.0,0.0,0.0,0.0,0.0,0.0
99294707791,5853,99296000000,honey/imu,-0.000238377309571,0.000200004209366,0.719985439091,0.693989099822,-1.0,-1.0,-1.0,-1.0,-1.0,-1.0,-1.0,-1.0,-1.0,5.22457960813e-05,0.000390469426004,0.022136523599,0.0,0.0,0.0,0.0,0.0,0.0,0.0,0.0,0.0,-0.00360871579944,1.45911740394e-05,2.12688446706e-05,0.0,0.0,0.0,0.0,0.0,0.0,0.0,0.0,0.0
99304761760,5854,99312000000,honey/imu,-0.000240272511268,0.000202509438779,0.720108423683,0.693861484304,-1.0,-1.0,-1.0,-1.0,-1.0,-1.0,-1.0,-1.0,-1.0,5.47849224818e-05,0.000386981071515,0.0221615217985,0.0,0.0,0.0,0.0,0.0,0.0,0.0,0.0,0.0,-0.00893065793511,9.78663339979e-05,1.76849511767e-05,0.0,0.0,0.0,0.0,0.0,0.0,0.0,0.0,0.0
99324919068,5855,99320000000,honey/imu,-0.000241211319643,0.000203763658222,0.720169970637,0.693797602828,-1.0,-1.0,-1.0,-1.0,-1.0,-1.0,-1.0,-1.0,-1.0,5.5989553187e-05,0.000386111737524,0.0221766902667,0.0,0.0,0.0,0.0,0.0,0.0,0.0,0.0,0.0,-0.0113679753043,0.000136665705355,1.56413404e-05,0.0,0.0,0.0,0.0,0.0,0.0,0.0,0.0,0.0
99335039100,5856,99344000000,honey/imu,-0.000244017396142,0.000207555260259,0.720354893986,0.693605596926,-1.0,-1.0,-1.0,-1.0,-1.0,-1.0,-1.0,-1.0,-1.0,5.94989376004e-05,0.000387839982772,0.0222344292208,0.0,0.0,0.0,0.0,0.0,0.0,0.0,0.0,0.0,-0.0147183313957,0.000199806632878,1.20028905396e-05,0.0,0.0,0.0,0.0,0.0,0.0,0.0,0.0,0.0
99355193439,5857,99360000000,honey/imu,-0.000245881598205,0.000210108326647,0.720478421952,0.693477280737,-1.0,-1.0,-1.0,-1.0,-1.0,-1.0,-1.0,-1.0,-1.0,6.15844096019e-05,0.00038893438074,0.0222736734741,0.0,0.0,0.0,0.0,0.0,0.0,0.0,0.0,0.0,-0.0156137784698,0.00022779751723,1.19618789088e-05,0.0,0.0,0.0,0.0,0.0,0.0,0.0,0.0,0.0
99375427339,5858,99376000000,honey/imu,-0.000247739789928,0.000212673240066,0.720602132657,0.693348728856,-1.0,-1.0,-1.0,-1.0,-1.0,-1.0,-1.0,-1.0,-1.0,6.29698735028e-05,0.000389268179731,0.0223096750704,0.0,0.0,0.0,0.0,0.0,0.0,0.0,0.0,0.0,-0.0154635071926,0.000249150671123,1.35102288389e-05,0.0,0.0,0.0,0.0,0.0,0.0,0.0,0.0,0.0
99385511091,5859,99392000000,honey/imu,-0.000249590824581,0.000215240331416,0.72072600198,0.693219966133,-1.0,-1.0,-1.0,-1.0,-1.0,-1.0,-1.0,-1.0,-1.0,6.35766229248e-05,0.000388328893397,0.0223412836526,0.0,0.0,0.0,0.0,0.0,0.0,0.0,0.0,0.0,-0.0149833110356,0.00026066203479,1.57927552451e-05,0.0,0.0,0.0,0.0,0.0,0.0,0.0,0.0,0.0
99405710715,5860,99400000000,honey/imu,-0.000250511761403,0.000216520381155,0.72078798904,0.693155513012,-1.0,-1.0,-1.0,-1.0,-1.0,-1.0,-1.0,-1.0,-1.0,6.36810790716e-05,0.000387375166448,0.0223559575385,0.0,0.0,0.0,0.0,0.0,0.0,0.0,0.0,0.0,-0.0147191158223,0.000261598871533,1.72728099642e-05,0.0,0.0,0.0,0.0,0.0,0.0,0.0,0.0,0.0
99415838703,5861,99416000000,honey/imu,-0.000253261819373,0.000220342726781,0.720974142131,0.692961884728,-1.0,-1.0,-1.0,-1.0,-1.0,-1.0,-1.0,-1.0,-1.0,6.33698664042e-05,0.000385270589903,0.0223833889162,0.0,0.0,0.0,0.0,0.0,0.0,0.0,0.0,0.0,-0.0143144692465,0.000271616984919,1.7889502194e-05,0.0,0.0,0.0,0.0,0.0,0.0,0.0,0.0,0.0
99435994746,5862,99432000000,honey/imu,-0.00025417818167,0.000221614002481,0.721036254952,0.692897254523,-1.0,-1.0,-1.0,-1.0,-1.0,-1.0,-1.0,-1.0,-1.0,6.28745728798e-05,0.000385032280474,0.0224096610992,0.0,0.0,0.0,0.0,0.0,0.0,0.0,0.0,0.0,-0.014091040702,0.00025371564877,1.5952319569e-05,0.0,0.0,0.0,0.0,0.0,0.0,0.0,0.0,0.0
99456241245,5863,99456000000,honey/imu,-0.000256951561091,0.000225445428684,0.721222764973,0.692703115652,-1.0,-1.0,-1.0,-1.0,-1.0,-1.0,-1.0,-1.0,-1.0,6.26244685578e-05,0.000389273428513,0.0224455709766,0.0,0.0,0.0,0.0,0.0,0.0,0.0,0.0,0.0,-0.0140272328851,0.000238870235492,1.14419437837e-05,0.0,0.0,0.0,0.0,0.0,0.0,0.0,0.0,0.0
99466367932,5864,99472000000,honey/imu,-0.00025881625133,0.000228024181856,0.721347204306,0.692573528125,-1.0,-1.0,-1.0,-1.0,-1.0,-1.0,-1.0,-1.0,-1.0,6.37920719093e-05,0.000390713378707,0.0224595332179,0.0,0.0,0.0,0.0,0.0,0.0,0.0,0.0,0.0,-0.0107307638407,0.000130302466078,1.06409784127e-05,0.0,0.0,0.0,0.0,0.0,0.0,0.0,0.0,0.0
99486606117,5865,99488000000,honey/imu,-0.000260661267565,0.000230604891933,0.721471656042,0.692443881051,-1.0,-1.0,-1.0,-1.0,-1.0,-1.0,-1.0,-1.0,-1.0,6.57917450405e-05,0.000388856864103,0.0224649034798,0.0,0.0,0.0,0.0,0.0,0.0,0.0,0.0,0.0,-0.0067219477096,1.80765839665e-05,1.29538858448e-05,0.0,0.0,0.0,0.0,0.0,0.0,0.0,0.0,0.0
99496700924,5866,99504000000,honey/imu,-0.000262482740781,0.000233186064756,0.721596102191,0.692314193145,-1.0,-1.0,-1.0,-1.0,-1.0,-1.0,-1.0,-1.0,-1.0,6.77041700405e-05,0.00038705629791,0.0224680791279,0.0,0.0,0.0,0.0,0.0,0.0,0.0,0.0,0.0,-0.00674955552725,-3.53676972046e-05,1.28759126009e-05,0.0,0.0,0.0,0.0,0.0,0.0,0.0,0.0,0.0
99516899990,5867,99520000000,honey/imu,-0.000264288508979,0.000235767745976,0.721720542166,0.692184464995,-1.0,-1.0,-1.0,-1.0,-1.0,-1.0,-1.0,-1.0,-1.0,6.89312478414e-05,0.00038555206045,0.022471143513,0.0,0.0,0.0,0.0,0.0,0.0,0.0,0.0,0.0,-0.0088169963932,-3.57424042843e-05,1.34253229478e-05,0.0,0.0,0.0,0.0,0.0,0.0,0.0,0.0,0.0
99526978178,5868,99536000000,honey/imu,-0.000266081476783,0.000238345353982,0.721844977949,0.692054694516,-1.0,-1.0,-1.0,-1.0,-1.0,-1.0,-1.0,-1.0,-1.0,6.95352455823e-05,0.000384310753969,0.0224750550042,0.0,0.0,0.0,0.0,0.0,0.0,0.0,0.0,0.0,-0.0112884699522,-4.44639838183e-06,1.38835491929e-05,0.0,0.0,0.0,0.0,0.0,0.0,0.0,0.0,0.0
99547183329,5869,99552000000,honey/imu,-0.000267871118807,0.000240922563632,0.721969420078,0.691924870686,-1.0,-1.0,-1.0,-1.0,-1.0,-1.0,-1.0,-1.0,-1.0,6.97005439934e-05,0.000384356723914,0.022480958981,0.0,0.0,0.0,0.0,0.0,0.0,0.0,0.0,0.0,-0.01322131232,4.00232817249e-05,1.28584160887e-05,0.0,0.0,0.0,0.0,0.0,0.0,0.0,0.0,0.0
99567414869,5870,99568000000,honey/imu,-0.000269657738107,0.000243497367002,0.722093870726,0.691794991203,-1.0,-1.0,-1.0,-1.0,-1.0,-1.0,-1.0,-1.0,-1.0,6.97884120219e-05,0.00038259344851,0.0224854916116,0.0,0.0,0.0,0.0,0.0,0.0,0.0,0.0,0.0,-0.0111182123219,4.14374999905e-05,1.48169957259e-05,0.0,0.0,0.0,0.0,0.0,0.0,0.0,0.0,0.0
99577507334,5871,99584000000,honey/imu,-0.000271417602481,0.00024604874699,0.722218308938,0.691665077929,-1.0,-1.0,-1.0,-1.0,-1.0,-1.0,-1.0,-1.0,-1.0,7.00060726e-05,0.000378046180064,0.0224873617013,0.0,0.0,0.0,0.0,0.0,0.0,0.0,0.0,0.0,-0.00760039438584,1.84994736721e-05,1.76493638171e-05,0.0,0.0,0.0,0.0,0.0,0.0,0.0,0.0,0.0
99597757647,5872,99592000000,honey/imu,-0.000273150375638,0.000248579827873,0.722342738891,0.691535126489,-1.0,-1.0,-1.0,-1.0,-1.0,-1.0,-1.0,-1.0,-1.0,7.01342111951e-05,0.000375664414527,0.0224881921887,0.0,0.0,0.0,0.0,0.0,0.0,0.0,0.0,0.0,-0.0069579674563,2.94881399647e-05,1.75464974601e-05,0.0,0.0,0.0,0.0,0.0,0.0,0.0,0.0,0.0
