%time,field.header.seq,field.header.stamp,field.header.frame_id,field.orientation.x,field.orientation.y,field.orientation.z,field.orientation.w,field.orientation_covariance0,field.orientation_covariance1,field.orientation_covariance2,field.orientation_covariance3,field.orientation_covariance4,field.orientation_covariance5,field.orientation_covariance6,field.orientation_covariance7,field.orientation_covariance8,field.angular_velocity.x,field.angular_velocity.y,field.angular_velocity.z,field.angular_velocity_covariance0,field.angular_velocity_covariance1,field.angular_velocity_covariance2,field.angular_velocity_covariance3,field.angular_velocity_covariance4,field.angular_velocity_covariance5,field.angular_velocity_covariance6,field.angular_velocity_covariance7,field.angular_velocity_covariance8,field.linear_acceleration.x,field.linear_acceleration.y,field.linear_acceleration.z,field.linear_acceleration_covariance0,field.linear_acceleration_covariance1,field.linear_acceleration_covariance2,field.linear_acceleration_covariance3,field.linear_acceleration_covariance4,field.linear_acceleration_covariance5,field.linear_acceleration_covariance6,field.linear_acceleration_covariance7,field.linear_acceleration_covariance8
27595154735,1395,27592000000,honey/imu,2.20435685058e-05,5.06674626318e-05,0.707138354932,0.707075203873,-1.0,-1.0,-1.0,-1.0,-1.0,-1.0,-1.0,-1.0,-1.0,5.55219995062e-05,-1.68249002533e-05,-6.0561017076e-05,0.0,0.0,0.0,0.0,0.0,0.0,0.0,0.0,0.0,-0.000886849721312,0.000129086778433,0.00020979349942,0.0,0.0,0.0,0.0,0.0,0.0,0.0,0.0,0.0
27615495609,1396,27608000000,honey/imu,2.25459668848e-05,5.0915504069e-05,0.707137850002,0.707075708813,-1.0,-1.0,-1.0,-1.0,-1.0,-1.0,-1.0,-1.0,-1.0,5.42002345657e-05,-1.86037964798e-05,-6.19520125324e-05,0.0,0.0,0.0,0.0,0.0,0.0,0.0,0.0,0.0,-0.000437742469516,0.000244930649333,0.000283326161891,0.0,0.0,0.0,0.0,0.0,0.0,0.0,0.0,0.0
27625601857,1397,27624000000,honey/imu,2.27546523361e-05,5.10169636119e-05,0.707137674618,0.707075884198,-1.0,-1.0,-1.0,-1.0,-1.0,-1.0,-1.0,-1.0,-1.0,5.48268179867e-05,-1.89606717941e-05,-6.20057745045e-05,0.0,0.0,0.0,0.0,0.0,0.0,0.0,0.0,0.0,-0.00011446742051,0.000144263084448,0.000157608450862,0.0,0.0,0.0,0.0,0.0,0.0,0.0,0.0,0.0
27635658744,1398,27640000000,honey/imu,2.31232074008e-05,5.12059168751e-05,0.707137338132,0.707076220689,-1.0,-1.0,-1.0,-1.0,-1.0,-1.0,-1.0,-1.0,-1.0,5.69289919014e-05,-1.88501275041e-05,-6.12919088704e-05,0.0,0.0,0.0,0.0,0.0,0.0,0.0,0.0,0.0,-1.20764139226e-05,4.89327201225e-05,4.78222528422e-05,0.0,0.0,0.0,0.0,0.0,0.0,0.0,0.0,0.0
27655818448,1399,27656000000,honey/imu,2.3462291523e-05,5.136640489e-05,0.70713700816,0.707076550666,-1.0,-1.0,-1.0,-1.0,-1.0,-1.0,-1.0,-1.0,-1.0,4.79066550727e-05,-1.89205995445e-05,-6.00919890689e-05,0.0,0.0,0.0,0.0,0.0,0.0,0.0,0.0,0.0,2.53809466815e-06,8.55746109655e-05,9.59942983148e-05,0.0,0.0,0.0,0.0,0.0,0.0,0.0,0.0,0.0
27675927594,1400,27672000000,honey/imu,2.37917671385e-05,5.15189972281e-05,0.707136685181,0.707076873651,-1.0,-1.0,-1.0,-1.0,-1.0,-1.0,-1.0,-1.0,-1.0,4.98406220445e-05,-1.88351560736e-05,-5.89344832129e-05,0.0,0.0,0.0,0.0,0.0,0.0,0.0,0.0,0.0,1.29094526379e-05,6.38550756175e-05,6.26736196775e-05,0.0,0.0,0.0,0.0,0.0,0.0,0.0,0.0,0.0
27696043356,1401,27688000000,honey/imu,2.41293017785e-05,5.16815947645e-05,0.707136372307,0.707077186528,-1.0,-1.0,-1.0,-1.0,-1.0,-1.0,-1.0,-1.0,-1.0,5.0939208629e-05,-1.88161741763e-05,-5.70640516914e-05,0.0,0.0,0.0,0.0,0.0,0.0,0.0,0.0,0.0,4.69908289567e-05,0.000106823225309,0.000109756388132,0.0,0.0,0.0,0.0,0.0,0.0,0.0,0.0,0.0
27716157039,1402,27704000000,honey/imu,2.44439054486e-05,5.18275748147e-05,0.707136071253,0.707077487584,-1.0,-1.0,-1.0,-1.0,-1.0,-1.0,-1.0,-1.0,-1.0,4.38547396128e-05,-1.8003373487e-05,-5.49348900344e-05,0.0,0.0,0.0,0.0,0.0,0.0,0.0,0.0,0.0,0.000160179806212,0.000103693689835,8.84868249366e-05,0.0,0.0,0.0,0.0,0.0,0.0,0.0,0.0,0.0
27726218968,1403,27720000000,honey/imu,2.47254145327e-05,5.19686140245e-05,0.707135779946,0.707077778895,-1.0,-1.0,-1.0,-1.0,-1.0,-1.0,-1.0,-1.0,-1.0,4.32914137143e-05,-1.52430900125e-05,-5.34775514564e-05,0.0,0.0,0.0,0.0,0.0,0.0,0.0,0.0,0.0,0.00024488717732,0.000183834975235,0.000161153277848,0.0,0.0,0.0,0.0,0.0,0.0,0.0,0.0,0.0
27736232111,1404,27736000000,honey/imu,2.49812537741e-05,5.21266575037e-05,0.707135495127,0.707078063717,-1.0,-1.0,-1.0,-1.0,-1.0,-1.0,-1.0,-1.0,-1.0,4.24757807726e-05,-1.11304920869e-05,-5.24113674398e-05,0.0,0.0,0.0,0.0,0.0,0.0,0.0,0.0,0.0,0.000353018337539,0.000172434019453,0.000123370232898,0.0,0.0,0.0,0.0,0.0,0.0,0.0,0.0,0.0
27756647929,1405,27752000000,honey/imu,2.52407517324e-05,5.23344885574e-05,0.707135075811,0.707078483043,-1.0,-1.0,-1.0,-1.0,-1.0,-1.0,-1.0,-1.0,-1.0,3.51762562557e-05,-6.34497266834e-06,-5.16537773197e-05,0.0,0.0,0.0,0.0,0.0,0.0,0.0,0.0,0.0,0.00038020531669,0.000150252928666,9.88806619882e-05,0.0,0.0,0.0,0.0,0.0,0.0,0.0,0.0,0.0
27766703743,1406,27768000000,honey/imu,2.53505644297e-05,5.24288084371e-05,0.707134930452,0.707078628402,-1.0,-1.0,-1.0,-1.0,-1.0,-1.0,-1.0,-1.0,-1.0,3.60867572372e-05,-2.74303221541e-06,-5.13913699192e-05,0.0,0.0,0.0,0.0,0.0,0.0,0.0,0.0,0.0,0.000227537366987,5.33167964824e-05,7.48906075942e-06,0.0,0.0,0.0,0.0,0.0,0.0,0.0,0.0,0.0
27786817587,1407,27792000000,honey/imu,2.55658252737e-05,5.26481545335e-05,0.707134494638,0.707079064227,-1.0,-1.0,-1.0,-1.0,-1.0,-1.0,-1.0,-1.0,-1.0,2.05777132717e-05,4.21168432161e-07,-5.21687619849e-05,0.0,0.0,0.0,0.0,0.0,0.0,0.0,0.0,0.0,-0.000184891987187,0.00121812939453,0.00152278991154,0.0,0.0,0.0,0.0,0.0,0.0,0.0,0.0,0.0
27806934896,1408,27800000000,honey/imu,2.56677749187e-05,5.27704162765e-05,0.707134350526,0.707079208337,-1.0,-1.0,-1.0,-1.0,-1.0,-1.0,-1.0,-1.0,-1.0,3.96364645879e-05,3.58633417351e-06,-5.09502387424e-05,0.0,0.0,0.0,0.0,0.0,0.0,0.0,0.0,0.0,0.00126048225581,-0.00380975305583,-0.0049320554214,0.0,0.0,0.0,0.0,0.0,0.0,0.0,0.0,0.0
27816993662,1409,27824000000,honey/imu,2.57980794053e-05,5.29778756383e-05,0.707133906725,0.707079652152,-1.0,-1.0,-1.0,-1.0,-1.0,-1.0,-1.0,-1.0,-1.0,1.28771316525e-05,4.30396034565e-06,-5.33681566569e-05,0.0,0.0,0.0,0.0,0.0,0.0,0.0,0.0,0.0,-0.000750782966839,0.000969056898356,0.00134823079409,0.0,0.0,0.0,0.0,0.0,0.0,0.0,0.0,0.0
27837107331,1410,27832000000,honey/imu,2.58558623331e-05,5.30921918095e-05,0.707133764308,0.707079794569,-1.0,-1.0,-1.0,-1.0,-1.0,-1.0,-1.0,-1.0,-1.0,3.04244610106e-05,9.98978802577e-06,-5.03519552411e-05,0.0,0.0,0.0,0.0,0.0,0.0,0.0,0.0,0.0,0.00301213911338,-0.00327990628703,-0.00464599155873,0.0,0.0,0.0,0.0,0.0,0.0,0.0,0.0,0.0
27847202693,1411,27848000000,honey/imu,2.59388429068e-05,5.3286030608e-05,0.707133472192,0.70708008669,-1.0,-1.0,-1.0,-1.0,-1.0,-1.0,-1.0,-1.0,-1.0,3.30710772315e-05,1.27796665362e-05,-5.00187493239e-05,0.0,0.0,0.0,0.0,0.0,0.0,0.0,0.0,0.0,0.000148403167656,-0.000117414100908,-0.000177048367093,0.0,0.0,0.0,0.0,0.0,0.0,0.0,0.0,0.0
27867564914,1412,27864000000,honey/imu,2.59971039534e-05,5.3477575894e-05,0.707133182181,0.707080376706,-1.0,-1.0,-1.0,-1.0,-1.0,-1.0,-1.0,-1.0,-1.0,2.61311510882e-05,1.45823531331e-05,-4.96126192307e-05,0.0,0.0,0.0,0.0,0.0,0.0,0.0,0.0,0.0,7.99423064209e-05,-8.6420923114e-05,-0.000113157180179,0.0,0.0,0.0,0.0,0.0,0.0,0.0,0.0,0.0
27887710948,1413,27880000000,honey/imu,2.60412767546e-05,5.36672923988e-05,0.70713289369,0.707080665202,-1.0,-1.0,-1.0,-1.0,-1.0,-1.0,-1.0,-1.0,-1.0,2.93129049359e-05,1.54587299995e-05,-4.93319831036e-05,0.0,0.0,0.0,0.0,0.0,0.0,0.0,0.0,0.0,2.58590553846e-05,-5.46253308814e-05,-7.44964352193e-05,0.0,0.0,0.0,0.0,0.0,0.0,0.0,0.0,0.0
27897766112,1414,27896000000,honey/imu,2.60951950317e-05,5.38803727736e-05,0.707132607322,0.707080951574,-1.0,-1.0,-1.0,-1.0,-1.0,-1.0,-1.0,-1.0,-1.0,3.22988440608e-05,1.663608774e-05,-4.90132178113e-05,0.0,0.0,0.0,0.0,0.0,0.0,0.0,0.0,0.0,1.98228705084e-05,-7.72267549583e-05,-0.000102360325031,0.0,0.0,0.0,0.0,0.0,0.0,0.0,0.0,0.0
27917900201,1415,27912000000,honey/imu,2.61260782002e-05,5.40838862527e-05,0.707132322784,0.707081236116,-1.0,-1.0,-1.0,-1.0,-1.0,-1.0,-1.0,-1.0,-1.0,2.49333210921e-05,1.76919793444e-05,-4.87828708755e-05,0.0,0.0,0.0,0.0,0.0,0.0,0.0,0.0,0.0,-4.00437625597e-06,-6.3798768839e-05,-6.98869775236e-05,0.0,0.0,0.0,0.0,0.0,0.0,0.0,0.0,0.0
27927955476,1416,27928000000,honey/imu,2.61296614125e-05,5.43667577329e-05,0.707131897774,0.707081661134,-1.0,-1.0,-1.0,-1.0,-1.0,-1.0,-1.0,-1.0,-1.0,2.80271565771e-05,1.90099139916e-05,-4.84874880586e-05,0.0,0.0,0.0,0.0,0.0,0.0,0.0,0.0,0.0,-3.42653556724e-05,-0.000117249914837,-0.000136608444767,0.0,0.0,0.0,0.0,0.0,0.0,0.0,0.0,0.0
27948050255,1417,27944000000,honey/imu,2.61640379821e-05,5.4511066607e-05,0.707131761851,0.707081797055,-1.0,-1.0,-1.0,-1.0,-1.0,-1.0,-1.0,-1.0,-1.0,3.15890720406e-05,1.94296120887e-05,-4.80561183227e-05,0.0,0.0,0.0,0.0,0.0,0.0,0.0,0.0,0.0,-0.000138652928823,-0.000169382995449,-0.00017131563544,0.0,0.0,0.0,0.0,0.0,0.0,0.0,0.0,0.0
27958107272,1418,27960000000,honey/imu,2.61687037986e-05,5.47230310412e-05,0.707131486656,0.707082072252,-1.0,-1.0,-1.0,-1.0,-1.0,-1.0,-1.0,-1.0,-1.0,2.38548310973e-05,1.94155105925e-05,-4.78368281888e-05,0.0,0.0,0.0,0.0,0.0,0.0,0.0,0.0,0.0,-0.000265470911136,-0.000155741606147,-0.000111575354853,0.0,0.0,0.0,0.0,0.0,0.0,0.0,0.0,0.0
27978192729,1419,27976000000,honey/imu,2.61588271102e-05,5.49220000911e-05,0.707131212968,0.707082345944,-1.0,-1.0,-1.0,-1.0,-1.0,-1.0,-1.0,-1.0,-1.0,2.65021402928e-05,1.84781573528e-05,-4.83526112452e-05,0.0,0.0,0.0,0.0,0.0,0.0,0.0,0.0,0.0,-0.000577488938562,-0.000135600330524,-3.34917394293e-05,0.0,0.0,0.0,0.0,0.0,0.0,0.0,0.0,0.0
27998480994,1420,27992000000,honey/imu,2.61602502263e-05,5.51358757524e-05,0.707130941504,0.70708261741,-1.0,-1.0,-1.0,-1.0,-1.0,-1.0,-1.0,-1.0,-1.0,2.88022347935e-05,1.82388976907e-05,-4.82610063195e-05,0.0,0.0,0.0,0.0,0.0,0.0,0.0,0.0,0.0,-0.000272618336975,-3.90510716239e-06,2.95119285307e-05,0.0,0.0,0.0,0.0,0.0,0.0,0.0,0.0,0.0
28008535172,1421,28008000000,honey/imu,2.6178531467e-05,5.53650989977e-05,0.707130672409,0.707082886505,-1.0,-1.0,-1.0,-1.0,-1.0,-1.0,-1.0,-1.0,-1.0,3.17571028962e-05,1.77734824781e-05,-4.79881369702e-05,0.0,0.0,0.0,0.0,0.0,0.0,0.0,0.0,0.0,-8.06097963184e-05,8.77180468158e-06,9.26553434209e-06,0.0,0.0,0.0,0.0,0.0,0.0,0.0,0.0,0.0
28028714281,1422,28024000000,honey/imu,2.61644618088e-05,5.55607959219e-05,0.707130404915,0.707083154002,-1.0,-1.0,-1.0,-1.0,-1.0,-1.0,-1.0,-1.0,-1.0,2.1206045345e-05,1.77226940487e-05,-4.77485371211e-05,0.0,0.0,0.0,0.0,0.0,0.0,0.0,0.0,0.0,5.19595907323e-06,1.54779649068e-05,2.41646886232e-05,0.0,0.0,0.0,0.0,0.0,0.0,0.0,0.0,0.0
28038839843,1423,28040000000,honey/imu,2.61424009442e-05,5.57480672836e-05,0.707130138616,0.707083420305,-1.0,-1.0,-1.0,-1.0,-1.0,-1.0,-1.0,-1.0,-1.0,2.4599271197e-05,1.76922203643e-05,-4.75360498169e-05,0.0,0.0,0.0,0.0,0.0,0.0,0.0,0.0,0.0,1.35339391267e-06,-5.08353701232e-06,-8.41146657059e-06,0.0,0.0,0.0,0.0,0.0,0.0,0.0,0.0,0.0
28059037513,1424,28056000000,honey/imu,2.61401261862e-05,5.5950707926e-05,0.707129873122,0.7070836858,-1.0,-1.0,-1.0,-1.0,-1.0,-1.0,-1.0,-1.0,-1.0,2.75125553863e-05,1.69706366755e-05,-4.75671213325e-05,0.0,0.0,0.0,0.0,0.0,0.0,0.0,0.0,0.0,-0.000126044645672,2.23765673925e-05,3.20265296841e-05,0.0,0.0,0.0,0.0,0.0,0.0,0.0,0.0,0.0
28079163948,1425,28072000000,honey/imu,2.61567508265e-05,5.6166287893e-05,0.707129608611,0.70708395031,-1.0,-1.0,-1.0,-1.0,-1.0,-1.0,-1.0,-1.0,-1.0,3.01172169618e-05,1.61587940658e-05,-4.75577387068e-05,0.0,0.0,0.0,0.0,0.0,0.0,0.0,0.0,0.0,-0.000133713903121,3.62437716231e-05,4.73191093179e-05,0.0,0.0,0.0,0.0,0.0,0.0,0.0,0.0,0.0
28089220322,1426,28088000000,honey/imu,2.61480110413e-05,5.63483183627e-05,0.707129344807,0.707084214118,-1.0,-1.0,-1.0,-1.0,-1.0,-1.0,-1.0,-1.0,-1.0,2.00448301041e-05,1.49651688495e-05,-4.77218922327e-05,0.0,0.0,0.0,0.0,0.0,0.0,0.0,0.0,0.0,-0.00018747497168,0.000100778164518,0.000136119978185,0.0,0.0,0.0,0.0,0.0,0.0,0.0,0.0,0.0
28109358286,1427,28104000000,honey/imu,2.61314602126e-05,5.65157132165e-05,0.707129082077,0.707084476851,-1.0,-1.0,-1.0,-1.0,-1.0,-1.0,-1.0,-1.0,-1.0,2.23349732948e-05,1.40800370566e-05,-4.77370493089e-05,0.0,0.0,0.0,0.0,0.0,0.0,0.0,0.0,0.0,-0.000120143289246,8.70654676363e-05,0.00010530903526,0.0,0.0,0.0,0.0,0.0,0.0,0.0,0.0,0.0
28119414760,1428,28120000000,honey/imu,2.61334310563e-05,5.66970195321e-05,0.707128821979,0.707084736951,-1.0,-1.0,-1.0,-1.0,-1.0,-1.0,-1.0,-1.0,-1.0,2.51252678186e-05,1.35540357804e-05,-4.7300526419e-05,0.0,0.0,0.0,0.0,0.0,0.0,0.0,0.0,0.0,-5.21720660373e-05,5.61209087874e-05,6.07737646264e-05,0.0,0.0,0.0,0.0,0.0,0.0,0.0,0.0,0.0
28139595582,1429,28136000000,honey/imu,2.61536088113e-05,5.68938201427e-05,0.707128564213,0.707084994717,-1.0,-1.0,-1.0,-1.0,-1.0,-1.0,-1.0,-1.0,-1.0,2.80514083698e-05,1.3306892399e-05,-4.69658498801e-05,0.0,0.0,0.0,0.0,0.0,0.0,0.0,0.0,0.0,-1.40339492723e-05,1.99407388488e-05,1.95702809094e-05,0.0,0.0,0.0,0.0,0.0,0.0,0.0,0.0,0.0
28159738847,1430,28152000000,honey/imu,2.61464746197e-05,5.70623980994e-05,0.707128307797,0.707085251135,-1.0,-1.0,-1.0,-1.0,-1.0,-1.0,-1.0,-1.0,-1.0,1.88795427365e-05,1.32873167503e-05,-4.67525215386e-05,0.0,0.0,0.0,0.0,0.0,0.0,0.0,0.0,0.0,1.08620791584e-05,9.67405122591e-06,1.83465149464e-05,0.0,0.0,0.0,0.0,0.0,0.0,0.0,0.0,0.0
28169837143,1431,28168000000,honey/imu,2.61330488307e-05,5.72225710111e-05,0.707128052438,0.707085506496,-1.0,-1.0,-1.0,-1.0,-1.0,-1.0,-1.0,-1.0,-1.0,2.17971259574e-05,1.29653803589e-05,-4.66260034259e-05,0.0,0.0,0.0,0.0,0.0,0.0,0.0,0.0,0.0,-1.46927961285e-05,2.81592679547e-05,3.23661889098e-05,0.0,0.0,0.0,0.0,0.0,0.0,0.0,0.0,0.0
28189989222,1432,28184000000,honey/imu,2.61349810406e-05,5.7393508166e-05,0.707127795763,0.707085763173,-1.0,-1.0,-1.0,-1.0,-1.0,-1.0,-1.0,-1.0,-1.0,2.36277714081e-05,1.23111591808e-05,-4.71259664425e-05,0.0,0.0,0.0,0.0,0.0,0.0,0.0,0.0,0.0,-2.03127814239e-05,8.63459381786e-05,0.000107672354578,0.0,0.0,0.0,0.0,0.0,0.0,0.0,0.0,0.0
28200229762,1433,28200000000,honey/imu,2.61287858735e-05,5.75511594428e-05,0.707127537225,0.707086021714,-1.0,-1.0,-1.0,-1.0,-1.0,-1.0,-1.0,-1.0,-1.0,1.76915648538e-05,1.17213141828e-05,-4.75325481387e-05,0.0,0.0,0.0,0.0,0.0,0.0,0.0,0.0,0.0,1.26423809626e-05,9.17146822614e-05,0.000119254610167,0.0,0.0,0.0,0.0,0.0,0.0,0.0,0.0,0.0
28220468486,1434,28224000000,honey/imu,2.6083330433e-05,5.77586159259e-05,0.707127152418,0.707086406528,-1.0,-1.0,-1.0,-1.0,-1.0,-1.0,-1.0,-1.0,-1.0,5.50527264207e-06,1.65692404287e-05,-4.42250727777e-05,0.0,0.0,0.0,0.0,0.0,0.0,0.0,0.0,0.0,0.00131245944055,0.00120721892719,0.0013287045541,0.0,0.0,0.0,0.0,0.0,0.0,0.0,0.0,0.0
28230592899,1435,28240000000,honey/imu,2.60851020098e-05,5.79114593525e-05,0.70712688905,0.707086669899,-1.0,-1.0,-1.0,-1.0,-1.0,-1.0,-1.0,-1.0,-1.0,6.41124079358e-06,1.60946711393e-05,-4.4880581314e-05,0.0,0.0,0.0,0.0,0.0,0.0,0.0,0.0,0.0,0.000149773136894,0.000109130826533,0.000115675470298,0.0,0.0,0.0,0.0,0.0,0.0,0.0,0.0,0.0
28250899869,1436,28248000000,honey/imu,2.60953499791e-05,5.79788263822e-05,0.707126750041,0.70708680891,-1.0,-1.0,-1.0,-1.0,-1.0,-1.0,-1.0,-1.0,-1.0,1.37219161668e-05,1.00940094173e-05,-4.91478274399e-05,0.0,0.0,0.0,0.0,0.0,0.0,0.0,0.0,0.0,-0.00361851063908,-0.00315627324054,-0.00343687923479,0.0,0.0,0.0,0.0,0.0,0.0,0.0,0.0,0.0
28271207957,1437,28264000000,honey/imu,2.60640276121e-05,5.8089751109e-05,0.707126477508,0.707087081449,-1.0,-1.0,-1.0,-1.0,-1.0,-1.0,-1.0,-1.0,-1.0,1.47060721173e-05,9.64754165597e-06,-5.03338456079e-05,0.0,0.0,0.0,0.0,0.0,0.0,0.0,0.0,0.0,0.000193220301837,0.00011740085418,0.000121560437853,0.0,0.0,0.0,0.0,0.0,0.0,0.0,0.0,0.0
28281264189,1438,28280000000,honey/imu,2.6042255731e-05,5.82033790262e-05,0.707126198846,0.707087360118,-1.0,-1.0,-1.0,-1.0,-1.0,-1.0,-1.0,-1.0,-1.0,1.63212027291e-05,9.3545159617e-06,-5.1143167486e-05,0.0,0.0,0.0,0.0,0.0,0.0,0.0,0.0,0.0,0.00014908501073,7.70644919757e-05,7.65270450737e-05,0.0,0.0,0.0,0.0,0.0,0.0,0.0,0.0,0.0
28301437991,1439,28296000000,honey/imu,2.60346301291e-05,5.83243307714e-05,0.707125918666,0.707087640305,-1.0,-1.0,-1.0,-1.0,-1.0,-1.0,-1.0,-1.0,-1.0,1.8882160437e-05,9.15434072743e-06,-5.08998690153e-05,0.0,0.0,0.0,0.0,0.0,0.0,0.0,0.0,0.0,7.64392532293e-05,3.0178088276e-05,2.86224688236e-05,0.0,0.0,0.0,0.0,0.0,0.0,0.0,0.0,0.0
28311520879,1440,28312000000,honey/imu,2.59964022869e-05,5.84093631086e-05,0.707125639222,0.707087919758,-1.0,-1.0,-1.0,-1.0,-1.0,-1.0,-1.0,-1.0,-1.0,8.84828966787e-06,8.93106195359e-06,-5.05772579876e-05,0.0,0.0,0.0,0.0,0.0,0.0,0.0,0.0,0.0,7.28182399825e-05,4.0163979518e-05,5.46523174486e-05,0.0,0.0,0.0,0.0,0.0,0.0,0.0,0.0,0.0
28331787111,1441,28328000000,honey/imu,2.59521601001e-05,5.84826622801e-05,0.707125362017,0.707088196974,-1.0,-1.0,-1.0,-1.0,-1.0,-1.0,-1.0,-1.0,-1.0,1.210281446e-05,8.70941505558e-06,-4.98857723946e-05,0.0,0.0,0.0,0.0,0.0,0.0,0.0,0.0,0.0,4.62941092348e-05,1.00256128393e-05,7.24024226886e-06,0.0,0.0,0.0,0.0,0.0,0.0,0.0,0.0,0.0
28352204167,1442,28344000000,honey/imu,2.59277639276e-05,5.85698842955e-05,0.707125087547,0.707088471451,-1.0,-1.0,-1.0,-1.0,-1.0,-1.0,-1.0,-1.0,-1.0,1.51746912575e-05,8.38577955918e-06,-4.92942088931e-05,0.0,0.0,0.0,0.0,0.0,0.0,0.0,0.0,0.0,6.20970687903e-05,1.50515754879e-05,1.2431607056e-05,0.0,0.0,0.0,0.0,0.0,0.0,0.0,0.0,0.0
28362323373,1443,28360000000,honey/imu,2.59216455089e-05,5.86647981891e-05,0.707124814571,0.707088744434,-1.0,-1.0,-1.0,-1.0,-1.0,-1.0,-1.0,-1.0,-1.0,1.74261822044e-05,7.65569862331e-06,-4.88424123405e-05,0.0,0.0,0.0,0.0,0.0,0.0,0.0,0.0,0.0,9.78835808845e-05,3.29342000859e-05,2.79650090387e-05,0.0,0.0,0.0,0.0,0.0,0.0,0.0,0.0,0.0
28382601305,1444,28376000000,honey/imu,2.5891996288e-05,5.8720806252e-05,0.707124541358,0.707089017657,-1.0,-1.0,-1.0,-1.0,-1.0,-1.0,-1.0,-1.0,-1.0,7.35446405339e-06,6.96810697001e-06,-4.84885343498e-05,0.0,0.0,0.0,0.0,0.0,0.0,0.0,0.0,0.0,8.55520288485e-05,3.42984459202e-05,4.42947079638e-05,0.0,0.0,0.0,0.0,0.0,0.0,0.0,0.0,0.0
28392723081,1445,28400000000,honey/imu,2.58301549091e-05,5.87456870435e-05,0.707124131321,0.707089427714,-1.0,-1.0,-1.0,-1.0,-1.0,-1.0,-1.0,-1.0,-1.0,-6.64789933691e-06,3.44175751016e-06,-4.87652417919e-05,0.0,0.0,0.0,0.0,0.0,0.0,0.0,0.0,0.0,-0.00036805184854,0.00128372268511,0.00155303355034,0.0,0.0,0.0,0.0,0.0,0.0,0.0,0.0,0.0
28412978814,1446,28408000000,honey/imu,2.58520847858e-05,5.87961603555e-05,0.707123998324,0.707089560713,-1.0,-1.0,-1.0,-1.0,-1.0,-1.0,-1.0,-1.0,-1.0,1.2800414602e-05,5.04268795696e-06,-4.70219591287e-05,0.0,0.0,0.0,0.0,0.0,0.0,0.0,0.0,0.0,0.00144705139622,-0.00383934574198,-0.00468708413763,0.0,0.0,0.0,0.0,0.0,0.0,0.0,0.0,0.0
28423072482,1447,28424000000,honey/imu,2.58706284942e-05,5.88521937292e-05,0.707123729161,0.707089829883,-1.0,-1.0,-1.0,-1.0,-1.0,-1.0,-1.0,-1.0,-1.0,1.60809150263e-05,4.84434023425e-06,-4.63542992873e-05,0.0,0.0,0.0,0.0,0.0,0.0,0.0,0.0,0.0,4.77009794199e-05,-1.81614239987e-05,-2.56205070492e-05,0.0,0.0,0.0,0.0,0.0,0.0,0.0,0.0,0.0
28443190282,1448,28440000000,honey/imu,2.58632733889e-05,5.88776673057e-05,0.707123461539,0.707090097516,-1.0,-1.0,-1.0,-1.0,-1.0,-1.0,-1.0,-1.0,-1.0,6.32737193668e-06,4.70404954506e-06,-4.5983611869e-05,0.0,0.0,0.0,0.0,0.0,0.0,0.0,0.0,0.0,1.07775778472e-05,6.37024683658e-06,1.84873921177e-05,0.0,0.0,0.0,0.0,0.0,0.0,0.0,0.0,0.0
28463368057,1449,28456000000,honey/imu,2.58502642839e-05,5.88958290275e-05,0.707123195073,0.707090363994,-1.0,-1.0,-1.0,-1.0,-1.0,-1.0,-1.0,-1.0,-1.0,9.71585073237e-06,4.66556693225e-06,-4.57551380961e-05,0.0,0.0,0.0,0.0,0.0,0.0,0.0,0.0,0.0,-5.94205849747e-07,-5.42625323047e-06,-9.72463008561e-06,0.0,0.0,0.0,0.0,0.0,0.0,0.0,0.0,0.0
28473490563,1450,28472000000,honey/imu,2.58561814175e-05,5.89326536307e-05,0.707122930137,0.707090628939,-1.0,-1.0,-1.0,-1.0,-1.0,-1.0,-1.0,-1.0,-1.0,1.30293422205e-05,4.61845307304e-06,-4.5488679353e-05,0.0,0.0,0.0,0.0,0.0,0.0,0.0,0.0,0.0,-4.69285014413e-07,-5.30273338234e-06,-9.52992772745e-06,0.0,0.0,0.0,0.0,0.0,0.0,0.0,0.0,0.0
28493642896,1451,28488000000,honey/imu,2.58561256005e-05,5.89595186616e-05,0.707122668936,0.70709089015,-1.0,-1.0,-1.0,-1.0,-1.0,-1.0,-1.0,-1.0,-1.0,7.15693056278e-06,4.08228736179e-06,-4.47575571648e-05,0.0,0.0,0.0,0.0,0.0,0.0,0.0,0.0,0.0,4.02440549791e-05,-7.1063652595e-07,3.84886764194e-06,0.0,0.0,0.0,0.0,0.0,0.0,0.0,0.0,0.0
28503868188,1452,28504000000,honey/imu,2.58528445442e-05,5.89672903223e-05,0.707122408649,0.707091150447,-1.0,-1.0,-1.0,-1.0,-1.0,-1.0,-1.0,-1.0,-1.0,9.28500793649e-06,2.59507478604e-06,-4.46716678993e-05,0.0,0.0,0.0,0.0,0.0,0.0,0.0,0.0,0.0,8.96193176526e-05,-2.17166648327e-06,-2.31987456785e-05,0.0,0.0,0.0,0.0,0.0,0.0,0.0,0.0,0.0
28534065096,1453,28520000000,honey/imu,2.58721097559e-05,5.89716812445e-05,0.707122143986,0.70709141512,-1.0,-1.0,-1.0,-1.0,-1.0,-1.0,-1.0,-1.0,-1.0,1.031256203e-05,4.85878528504e-07,-4.54094695991e-05,0.0,0.0,0.0,0.0,0.0,0.0,0.0,0.0,0.0,0.000135472889727,1.91045345125e-06,-3.18381961375e-05,0.0,0.0,0.0,0.0,0.0,0.0,0.0,0.0,0.0
28534065096,1454,28536000000,honey/imu,2.58848451602e-05,5.89424722755e-05,0.707121869686,0.707091689435,-1.0,-1.0,-1.0,-1.0,-1.0,-1.0,-1.0,-1.0,-1.0,1.94464103091e-06,-1.41821868673e-06,-4.70558849699e-05,0.0,0.0,0.0,0.0,0.0,0.0,0.0,0.0,0.0,0.000170191344423,4.57292118214e-06,-2.56827444818e-05,0.0,0.0,0.0,0.0,0.0,0.0,0.0,0.0,0.0
28554352936,1455,28552000000,honey/imu,2.58949462737e-05,5.88802020831e-05,0.707121581536,0.707091977602,-1.0,-1.0,-1.0,-1.0,-1.0,-1.0,-1.0,-1.0,-1.0,2.09581656716e-06,-3.83705828593e-06,-4.9411419277e-05,0.0,0.0,0.0,0.0,0.0,0.0,0.0,0.0,0.0,0.00017158375276,-1.22741852838e-05,-5.16738771601e-05,0.0,0.0,0.0,0.0,0.0,0.0,0.0,0.0,0.0
28574512598,1456,28568000000,honey/imu,2.59257149012e-05,5.88098437109e-05,0.707121281452,0.707092277703,-1.0,-1.0,-1.0,-1.0,-1.0,-1.0,-1.0,-1.0,-1.0,2.71459024142e-06,-6.0425081061e-06,-5.11811023641e-05,0.0,0.0,0.0,0.0,0.0,0.0,0.0,0.0,0.0,0.000122410162399,-2.00203645335e-05,-4.69766010057e-05,0.0,0.0,0.0,0.0,0.0,0.0,0.0,0.0,0.0
28584567303,1457,28584000000,honey/imu,2.59440567239e-05,5.87067989765e-05,0.707120973419,0.707092585756,-1.0,-1.0,-1.0,-1.0,-1.0,-1.0,-1.0,-1.0,-1.0,-4.86115369582e-06,-7.48555194765e-06,-5.23283157976e-05,0.0,0.0,0.0,0.0,0.0,0.0,0.0,0.0,0.0,6.15653315126e-05,-1.19316520747e-05,-1.3441402903e-05,0.0,0.0,0.0,0.0,0.0,0.0,0.0,0.0,0.0
28604782668,1458,28600000000,honey/imu,2.59618876342e-05,5.85836986893e-05,0.707120659307,0.70709289989,-1.0,-1.0,-1.0,-1.0,-1.0,-1.0,-1.0,-1.0,-1.0,-3.35103441093e-06,-9.24728190646e-06,-5.33409045177e-05,0.0,0.0,0.0,0.0,0.0,0.0,0.0,0.0,0.0,4.03788334118e-05,-1.68512565345e-05,-2.40808367953e-05,0.0,0.0,0.0,0.0,0.0,0.0,0.0,0.0,0.0
28614842745,1459,28616000000,honey/imu,2.60130154338e-05,5.83620641206e-05,0.707120176129,0.707093383103,-1.0,-1.0,-1.0,-1.0,-1.0,-1.0,-1.0,-1.0,-1.0,-1.6818779157e-06,-1.10274265909e-05,-5.36346185205e-05,0.0,0.0,0.0,0.0,0.0,0.0,0.0,0.0,0.0,1.86666216534e-05,-1.2203714465e-05,-1.48107645847e-05,0.0,0.0,0.0,0.0,0.0,0.0,0.0,0.0,0.0
28634955535,1460,28632000000,honey/imu,2.60234808657e-05,5.82948816702e-05,0.707120022999,0.707093536244,-1.0,-1.0,-1.0,-1.0,-1.0,-1.0,-1.0,-1.0,-1.0,-1.00252687944e-05,-1.37293762927e-05,-5.41410664115e-05,0.0,0.0,0.0,0.0,0.0,0.0,0.0,0.0,0.0,2.16898741054e-05,-5.08544445017e-06,4.28438519742e-06,0.0,0.0,0.0,0.0,0.0,0.0,0.0,0.0,0.0
28655101412,1461,28648000000,honey/imu,2.60490704934e-05,5.80920180097e-05,0.707119699034,0.707093860237,-1.0,-1.0,-1.0,-1.0,-1.0,-1.0,-1.0,-1.0,-1.0,-1.00310070664e-05,-1.74974008045e-05,-5.50770776389e-05,0.0,0.0,0.0,0.0,0.0,0.0,0.0,0.0,0.0,3.81931828628e-05,-1.99351245828e-05,-2.38968585607e-05,0.0,0.0,0.0,0.0,0.0,0.0,0.0,0.0,0.0
28665156705,1462,28664000000,honey/imu,2.60956273037e-05,5.78710072394e-05,0.707119370645,0.707094188654,-1.0,-1.0,-1.0,-1.0,-1.0,-1.0,-1.0,-1.0,-1.0,-9.68850753828e-06,-2.08547496111e-05,-5.58649035507e-05,0.0,0.0,0.0,0.0,0.0,0.0,0.0,0.0,0.0,3.69487673407e-05,-2.4130483541e-05,-2.94597927793e-05,0.0,0.0,0.0,0.0,0.0,0.0,0.0,0.0,0.0
28685270951,1463,28680000000,honey/imu,2.61321663526e-05,5.760110701e-05,0.707119029549,0.707094529783,-1.0,-1.0,-1.0,-1.0,-1.0,-1.0,-1.0,-1.0,-1.0,-1.83968002562e-05,-2.43783160949e-05,-5.85727186816e-05,0.0,0.0,0.0,0.0,0.0,0.0,0.0,0.0,0.0,2.91473669345e-05,-2.28211346183e-05,-1.3153076289e-05,0.0,0.0,0.0,0.0,0.0,0.0,0.0,0.0,0.0
28695546468,1464,28704000000,honey/imu,2.61750848866e-05,5.7080853096e-05,0.707118466844,0.707095092547,-1.0,-1.0,-1.0,-1.0,-1.0,-1.0,-1.0,-1.0,-1.0,-3.31307297118e-05,-3.75510947843e-05,-7.01443768427e-05,0.0,0.0,0.0,0.0,0.0,0.0,0.0,0.0,0.0,-0.00152554786824,0.000713852911332,0.00110025142321,0.0,0.0,0.0,0.0,0.0,0.0,0.0,0.0,0.0
28725847272,1465,28712000000,honey/imu,2.6203731974e-05,5.69233755469e-05,0.707118272966,0.707095286444,-1.0,-1.0,-1.0,-1.0,-1.0,-1.0,-1.0,-1.0,-1.0,-2.27732691543e-05,-3.29061573019e-05,-6.8548175244e-05,0.0,0.0,0.0,0.0,0.0,0.0,0.0,0.0,0.0,0.00465880012529,-0.00227418681179,-0.00342175162096,0.0,0.0,0.0,0.0,0.0,0.0,0.0,0.0,0.0
28735940917,1466,28728000000,honey/imu,2.6228141286e-05,5.65069024166e-05,0.707117838698,0.707095720757,-1.0,-1.0,-1.0,-1.0,-1.0,-1.0,-1.0,-1.0,-1.0,-3.26214139192e-05,-3.64666072321e-05,-7.6474557754e-05,0.0,0.0,0.0,0.0,0.0,0.0,0.0,0.0,0.0,-3.83137331328e-05,-4.97098838184e-05,-1.15744567454e-05,0.0,0.0,0.0,0.0,0.0,0.0,0.0,0.0,0.0
28745994657,1467,28744000000,honey/imu,2.6236285396e-05,5.60494102731e-05,0.707117366095,0.707096193411,-1.0,-1.0,-1.0,-1.0,-1.0,-1.0,-1.0,-1.0,-1.0,-3.36563287575e-05,-3.82638139642e-05,-8.29051078478e-05,0.0,0.0,0.0,0.0,0.0,0.0,0.0,0.0,0.0,-3.99075586433e-05,-4.36068278266e-05,-2.1955746844e-05,0.0,0.0,0.0,0.0,0.0,0.0,0.0,0.0,0.0
28766299700,1468,28760000000,honey/imu,2.62491350674e-05,5.55802443365e-05,0.707116861284,0.707096698273,-1.0,-1.0,-1.0,-1.0,-1.0,-1.0,-1.0,-1.0,-1.0,-3.33946177527e-05,-3.95298723216e-05,-8.80633229063e-05,0.0,0.0,0.0,0.0,0.0,0.0,0.0,0.0,0.0,-9.18473505398e-05,-8.83327724059e-05,-4.69632309016e-05,0.0,0.0,0.0,0.0,0.0,0.0,0.0,0.0,0.0
28776359412,1469,28776000000,honey/imu,2.62449077785e-05,5.50905541134e-05,0.707116340948,0.707097218663,-1.0,-1.0,-1.0,-1.0,-1.0,-1.0,-1.0,-1.0,-1.0,-3.99490658776e-05,-3.98212814354e-05,-8.99969949532e-05,0.0,0.0,0.0,0.0,0.0,0.0,0.0,0.0,0.0,-6.26927076954e-05,-4.78062826034e-05,-2.00984397189e-05,0.0,0.0,0.0,0.0,0.0,0.0,0.0,0.0,0.0
28796473770,1470,28792000000,honey/imu,2.62365707879e-05,5.45969754455e-05,0.707115822684,0.707097736979,-1.0,-1.0,-1.0,-1.0,-1.0,-1.0,-1.0,-1.0,-1.0,-3.6561764115e-05,-3.98534692743e-05,-8.94620015288e-05,0.0,0.0,0.0,0.0,0.0,0.0,0.0,0.0,0.0,-2.03805388757e-06,-7.38200544981e-06,-1.11592401021e-05,0.0,0.0,0.0,0.0,0.0,0.0,0.0,0.0,0.0
28806548340,1471,28808000000,honey/imu,2.62470101987e-05,5.41216511114e-05,0.707115307892,0.70709825182,-1.0,-1.0,-1.0,-1.0,-1.0,-1.0,-1.0,-1.0,-1.0,-3.33012199422e-05,-3.99367773254e-05,-8.88402425807e-05,0.0,0.0,0.0,0.0,0.0,0.0,0.0,0.0,0.0,-1.34853700732e-06,-7.21901099461e-06,-1.09141517763e-05,0.0,0.0,0.0,0.0,0.0,0.0,0.0,0.0,0.0
28826663494,1472,28824000000,honey/imu,2.62416440779e-05,5.36239672241e-05,0.70711479586,0.707098763902,-1.0,-1.0,-1.0,-1.0,-1.0,-1.0,-1.0,-1.0,-1.0,-4.06669852757e-05,-4.07608682702e-05,-8.84409643621e-05,0.0,0.0,0.0,0.0,0.0,0.0,0.0,0.0,0.0,-3.82974161824e-05,1.29737421209e-05,3.52694586223e-05,0.0,0.0,0.0,0.0,0.0,0.0,0.0,0.0,0.0
28846872754,1473,28840000000,honey/imu,2.62344667835e-05,5.31141753242e-05,0.707114286274,0.707099273538,-1.0,-1.0,-1.0,-1.0,-1.0,-1.0,-1.0,-1.0,-1.0,-3.78360620849e-05,-4.17436312977e-05,-8.80321417828e-05,0.0,0.0,0.0,0.0,0.0,0.0,0.0,0.0,0.0,-3.27938510062e-05,3.36073741188e-06,1.1380060328e-05,0.0,0.0,0.0,0.0,0.0,0.0,0.0,0.0,0.0
28856939192,1474,28856000000,honey/imu,2.62474628341e-05,5.26099992201e-05,0.707113777538,0.707099782322,-1.0,-1.0,-1.0,-1.0,-1.0,-1.0,-1.0,-1.0,-1.0,-3.55741949981e-05,-4.32355578433e-05,-8.80422981608e-05,0.0,0.0,0.0,0.0,0.0,0.0,0.0,0.0,0.0,-6.0284937375e-05,1.97636407487e-05,3.54511660537e-05,0.0,0.0,0.0,0.0,0.0,0.0,0.0,0.0,0.0
28877071589,1475,28872000000,honey/imu,2.62528005455e-05,5.20770501119e-05,0.707113268289,0.70710029162,-1.0,-1.0,-1.0,-1.0,-1.0,-1.0,-1.0,-1.0,-1.0,-4.28665201493e-05,-4.53666238342e-05,-8.82309637493e-05,0.0,0.0,0.0,0.0,0.0,0.0,0.0,0.0,0.0,-9.69967782788e-05,7.28816651388e-05,0.000105325026588,0.0,0.0,0.0,0.0,0.0,0.0,0.0,0.0,0.0
28887126647,1476,28888000000,honey/imu,2.62559804311e-05,5.15207756691e-05,0.70711275804,0.707100801918,-1.0,-1.0,-1.0,-1.0,-1.0,-1.0,-1.0,-1.0,-1.0,-4.1015541001e-05,-4.71246568975e-05,-8.83872715326e-05,0.0,0.0,0.0,0.0,0.0,0.0,0.0,0.0,0.0,-6.96425770408e-05,6.71713493031e-05,7.76355104905e-05,0.0,0.0,0.0,0.0,0.0,0.0,0.0,0.0,0.0
28907240204,1477,28904000000,honey/imu,2.6279159509e-05,5.09634513011e-05,0.70711224555,0.707101314456,-1.0,-1.0,-1.0,-1.0,-1.0,-1.0,-1.0,-1.0,-1.0,-3.94844292497e-05,-4.89494075673e-05,-8.88877560601e-05,0.0,0.0,0.0,0.0,0.0,0.0,0.0,0.0,0.0,-6.68406311722e-05,8.19517039228e-05,9.29610093468e-05,0.0,0.0,0.0,0.0,0.0,0.0,0.0,0.0,0.0
28917295626,1478,28920000000,honey/imu,2.62990164951e-05,5.03778403631e-05,0.707111730422,0.707101829632,-1.0,-1.0,-1.0,-1.0,-1.0,-1.0,-1.0,-1.0,-1.0,-4.64921404407e-05,-5.12029771435e-05,-8.91948835325e-05,0.0,0.0,0.0,0.0,0.0,0.0,0.0,0.0,0.0,-8.00962957333e-05,0.000125203925273,0.000151853303878,0.0,0.0,0.0,0.0,0.0,0.0,0.0,0.0,0.0
28937581322,1479,28936000000,honey/imu,2.63326147233e-05,4.9421998493e-05,0.707110948559,0.707102611572,-1.0,-1.0,-1.0,-1.0,-1.0,-1.0,-1.0,-1.0,-1.0,-4.56395440443e-05,-5.40114734312e-05,-8.91588841159e-05,0.0,0.0,0.0,0.0,0.0,0.0,0.0,0.0,0.0,-9.51991001683e-05,0.000147061395993,0.000163259049432,0.0,0.0,0.0,0.0,0.0,0.0,0.0,0.0,0.0
28958022362,1480,28952000000,honey/imu,2.63646424976e-05,4.91349032097e-05,0.707110695145,0.707102865008,-1.0,-1.0,-1.0,-1.0,-1.0,-1.0,-1.0,-1.0,-1.0,-4.50888611542e-05,-5.64180531768e-05,-8.95968673956e-05,0.0,0.0,0.0,0.0,0.0,0.0,0.0,0.0,0.0,-0.000111373243014,0.000164406225526,0.000180788913271,0.0,0.0,0.0,0.0,0.0,0.0,0.0,0.0,0.0
28968097678,1481,28968000000,honey/imu,2.64074714492e-05,4.84838938338e-05,0.707110166817,0.707103393385,-1.0,-1.0,-1.0,-1.0,-1.0,-1.0,-1.0,-1.0,-1.0,-5.19006172265e-05,-5.76585462392e-05,-9.11193087298e-05,0.0,0.0,0.0,0.0,0.0,0.0,0.0,0.0,0.0,-0.000102520228024,0.000162265734643,0.00018356400777,0.0,0.0,0.0,0.0,0.0,0.0,0.0,0.0,0.0
28988211898,1482,28984000000,honey/imu,2.64579554579e-05,4.78276864884e-05,0.707109625611,0.707103934638,-1.0,-1.0,-1.0,-1.0,-1.0,-1.0,-1.0,-1.0,-1.0,-5.35456699717e-05,-5.80169945252e-05,-9.31653686776e-05,0.0,0.0,0.0,0.0,0.0,0.0,0.0,0.0,0.0,-2.60071926962e-05,0.000138351369744,0.000132324309463,0.0,0.0,0.0,0.0,0.0,0.0,0.0,0.0,0.0
28998289242,1483,29000000000,honey/imu,2.6511614527e-05,4.71769415407e-05,0.707109076835,0.70710448346,-1.0,-1.0,-1.0,-1.0,-1.0,-1.0,-1.0,-1.0,-1.0,-5.57281261487e-05,-5.80053268913e-05,-9.45120906297e-05,0.0,0.0,0.0,0.0,0.0,0.0,0.0,0.0,0.0,6.12032638328e-05,0.000123817221305,9.63816291223e-05,0.0,0.0,0.0,0.0,0.0,0.0,0.0,0.0,0.0
29018568245,1484,29016000000,honey/imu,2.65731942966e-05,4.65400821652e-05,0.707108523001,0.707105037337,-1.0,-1.0,-1.0,-1.0,-1.0,-1.0,-1.0,-1.0,-1.0,-5.6862321207e-05,-5.79196305016e-05,-9.56568556283e-05,0.0,0.0,0.0,0.0,0.0,0.0,0.0,0.0,0.0,7.52009875069e-05,0.000129938372565,9.94284224568e-05,0.0,0.0,0.0,0.0,0.0,0.0,0.0,0.0,0.0
29038683767,1485,29032000000,honey/imu,2.66041148886e-05,4.58778297017e-05,0.707107963416,0.707105596966,-1.0,-1.0,-1.0,-1.0,-1.0,-1.0,-1.0,-1.0,-1.0,-6.1493845396e-05,-5.77548224894e-05,-9.69257667931e-05,0.0,0.0,0.0,0.0,0.0,0.0,0.0,0.0,0.0,9.15457052828e-05,0.000146369439573,0.000111984786718,0.0,0.0,0.0,0.0,0.0,0.0,0.0,0.0,0.0
29048740072,1486,29048000000,honey/imu,2.66422938033e-05,4.52266660167e-05,0.707107398637,0.707106161787,-1.0,-1.0,-1.0,-1.0,-1.0,-1.0,-1.0,-1.0,-1.0,-6.05318576268e-05,-5.76892756649e-05,-9.79989555004e-05,0.0,0.0,0.0,0.0,0.0,0.0,0.0,0.0,0.0,9.79978854159e-05,0.000164201879868,0.000121704853362,0.0,0.0,0.0,0.0,0.0,0.0,0.0,0.0,0.0
29068853286,1487,29064000000,honey/imu,2.66807044353e-05,4.45792610092e-05,0.707106828629,0.707106731835,-1.0,-1.0,-1.0,-1.0,-1.0,-1.0,-1.0,-1.0,-1.0,-6.16238286308e-05,-5.75608320069e-05,-9.90216129387e-05,0.0,0.0,0.0,0.0,0.0,0.0,0.0,0.0,0.0,9.57119611763e-05,0.000135779433846,0.000102476469955,0.0,0.0,0.0,0.0,0.0,0.0,0.0,0.0,0.0
29088964183,1488,29080000000,honey/imu,2.66836985025e-05,4.38991627976e-05,0.707106254386,0.707107306121,-1.0,-1.0,-1.0,-1.0,-1.0,-1.0,-1.0,-1.0,-1.0,-6.64213665073e-05,-5.74368206741e-05,-9.9762845187e-05,0.0,0.0,0.0,0.0,0.0,0.0,0.0,0.0,0.0,5.37788042699e-05,6.91133870184e-05,5.48701143364e-05,0.0,0.0,0.0,0.0,0.0,0.0,0.0,0.0,0.0
29099018240,1489,29096000000,honey/imu,2.67483222027e-05,4.29242691565e-05,0.70710538872,0.707108171841,-1.0,-1.0,-1.0,-1.0,-1.0,-1.0,-1.0,-1.0,-1.0,-6.33503501189e-05,-5.74640578554e-05,-9.96635717251e-05,0.0,0.0,0.0,0.0,0.0,0.0,0.0,0.0,0.0,1.76244669843e-08,1.47722647718e-06,3.50262928994e-06,0.0,0.0,0.0,0.0,0.0,0.0,0.0,0.0,0.0
29119159435,1490,29112000000,honey/imu,2.67346574053e-05,4.25854446004e-05,0.707105109732,0.707108450849,-1.0,-1.0,-1.0,-1.0,-1.0,-1.0,-1.0,-1.0,-1.0,-6.23106617376e-05,-5.74856498071e-05,-9.86385708074e-05,0.0,0.0,0.0,0.0,0.0,0.0,0.0,0.0,0.0,1.39556906351e-05,1.97755470629e-05,1.99419629771e-05,0.0,0.0,0.0,0.0,0.0,0.0,0.0,0.0,0.0
29129214435,1491,29128000000,honey/imu,2.6738090749e-05,4.19065788157e-05,0.707104550379,0.70710901024,-1.0,-1.0,-1.0,-1.0,-1.0,-1.0,-1.0,-1.0,-1.0,-6.60125669096e-05,-5.74211552709e-05,-9.64193773424e-05,0.0,0.0,0.0,0.0,0.0,0.0,0.0,0.0,0.0,7.51391135367e-05,8.33516672704e-05,6.00993558398e-05,0.0,0.0,0.0,0.0,0.0,0.0,0.0,0.0,0.0
29149330317,1492,29144000000,honey/imu,2.67604311879e-05,4.12475307245e-05,0.70710400746,0.707109553193,-1.0,-1.0,-1.0,-1.0,-1.0,-1.0,-1.0,-1.0,-1.0,-6.25537949326e-05,-5.72804336687e-05,-9.32507663166e-05,0.0,0.0,0.0,0.0,0.0,0.0,0.0,0.0,0.0,0.000135990311625,0.000131056186721,7.97364871266e-05,0.0,0.0,0.0,0.0,0.0,0.0,0.0,0.0,0.0
29159425619,1493,29160000000,honey/imu,2.67947831151e-05,4.06021938337e-05,0.707103480193,0.707110080491,-1.0,-1.0,-1.0,-1.0,-1.0,-1.0,-1.0,-1.0,-1.0,-6.12930755603e-05,-5.70853766878e-05,-9.06026922471e-05,0.0,0.0,0.0,0.0,0.0,0.0,0.0,0.0,0.0,0.000143972391826,0.000113842589769,6.07599578632e-05,0.0,0.0,0.0,0.0,0.0,0.0,0.0,0.0,0.0
29179576911,1494,29176000000,honey/imu,2.68015220262e-05,3.99314465417e-05,0.707102965988,0.707110594729,-1.0,-1.0,-1.0,-1.0,-1.0,-1.0,-1.0,-1.0,-1.0,-6.46807540827e-05,-5.67524063263e-05,-8.83409255518e-05,0.0,0.0,0.0,0.0,0.0,0.0,0.0,0.0,0.0,0.00018445626822,0.000104163745147,2.7792940517e-05,0.0,0.0,0.0,0.0,0.0,0.0,0.0,0.0,0.0
29199775831,1495,29192000000,honey/imu,2.68262275591e-05,3.9282091534e-05,0.707102464762,0.707111095985,-1.0,-1.0,-1.0,-1.0,-1.0,-1.0,-1.0,-1.0,-1.0,-6.07626906666e-05,-5.62328230523e-05,-8.58249975381e-05,0.0,0.0,0.0,0.0,0.0,0.0,0.0,0.0,0.0,0.000247270550249,7.15644934876e-05,-3.41013172499e-05,0.0,0.0,0.0,0.0,0.0,0.0,0.0,0.0,0.0
29209856329,1496,29208000000,honey/imu,2.6858906095e-05,3.86542361178e-05,0.7071019784,0.707111582374,-1.0,-1.0,-1.0,-1.0,-1.0,-1.0,-1.0,-1.0,-1.0,-5.87897611794e-05,-5.43788966062e-05,-8.29423306532e-05,0.0,0.0,0.0,0.0,0.0,0.0,0.0,0.0,0.0,0.000363972326191,-1.26515149083e-05,-0.000193488560276,0.0,0.0,0.0,0.0,0.0,0.0,0.0,0.0,0.0
29230019165,1497,29224000000,honey/imu,2.6873952156e-05,3.80276798762e-05,0.707101503737,0.707112057064,-1.0,-1.0,-1.0,-1.0,-1.0,-1.0,-1.0,-1.0,-1.0,-5.65629843927e-05,-5.22764470117e-05,-8.07455324076e-05,0.0,0.0,0.0,0.0,0.0,0.0,0.0,0.0,0.0,0.000340843680211,-0.000189042239875,-0.000405273062713,0.0,0.0,0.0,0.0,0.0,0.0,0.0,0.0,0.0
29240149016,1498,29240000000,honey/imu,2.68986398008e-05,3.74250232322e-05,0.707101038998,0.707112521827,-1.0,-1.0,-1.0,-1.0,-1.0,-1.0,-1.0,-1.0,-1.0,-5.19326803241e-05,-5.08265538783e-05,-7.88934977843e-05,0.0,0.0,0.0,0.0,0.0,0.0,0.0,0.0,0.0,0.000218940622657,-0.000420012623235,-0.000601414505903,0.0,0.0,0.0,0.0,0.0,0.0,0.0,0.0,0.0
29260260303,1499,29256000000,honey/imu,2.69346955936e-05,3.68384039731e-05,0.707100582395,0.707112978451,-1.0,-1.0,-1.0,-1.0,-1.0,-1.0,-1.0,-1.0,-1.0,-4.79155896379e-05,-5.06822706054e-05,-7.74475545239e-05,0.0,0.0,0.0,0.0,0.0,0.0,0.0,0.0,0.0,-7.96193935901e-05,-0.000600079897698,-0.000638717374207,0.0,0.0,0.0,0.0,0.0,0.0,0.0,0.0,0.0
29270318069,1500,29272000000,honey/imu,2.70184988777e-05,3.59602884828e-05,0.707099901183,0.707113659693,-1.0,-1.0,-1.0,-1.0,-1.0,-1.0,-1.0,-1.0,-1.0,-4.11121959294e-05,-5.12975948549e-05,-7.65505168077e-05,0.0,0.0,0.0,0.0,0.0,0.0,0.0,0.0,0.0,-0.000211252530397,-0.000370331141341,-0.000310902119224,0.0,0.0,0.0,0.0,0.0,0.0,0.0,0.0,0.0
29280372367,1501,29288000000,honey/imu,2.70364472034e-05,3.56852821767e-05,0.707099685007,0.707113875878,-1.0,-1.0,-1.0,-1.0,-1.0,-1.0,-1.0,-1.0,-1.0,-4.54408732065e-05,-5.17913974333e-05,-7.64293676872e-05,0.0,0.0,0.0,0.0,0.0,0.0,0.0,0.0,0.0,-0.00011898004501,-0.000122105165471,-8.78185655542e-05,0.0,0.0,0.0,0.0,0.0,0.0,0.0,0.0,0.0
29310575919,1502,29304000000,honey/imu,2.70887045447e-05,3.51035950044e-05,0.707099239179,0.707114321724,-1.0,-1.0,-1.0,-1.0,-1.0,-1.0,-1.0,-1.0,-1.0,-4.12818783176e-05,-5.23834746236e-05,-7.61916086173e-05,0.0,0.0,0.0,0.0,0.0,0.0,0.0,0.0,0.0,-0.000124801425383,-0.000111410678967,-7.7077977375e-05,0.0,0.0,0.0,0.0,0.0,0.0,0.0,0.0,0.0
29320634054,1503,29320000000,honey/imu,2.71461296437e-05,3.4519365973e-05,0.707098798668,0.707114762251,-1.0,-1.0,-1.0,-1.0,-1.0,-1.0,-1.0,-1.0,-1.0,-4.36621555009e-05,-5.34030100996e-05,-7.52270336957e-05,0.0,0.0,0.0,0.0,0.0,0.0,0.0,0.0,0.0,-0.000219160490761,-0.000147122412753,-4.74221517464e-05,0.0,0.0,0.0,0.0,0.0,0.0,0.0,0.0,0.0
29340747675,1504,29336000000,honey/imu,2.72081042523e-05,3.39320968321e-05,0.707098364779,0.707115196156,-1.0,-1.0,-1.0,-1.0,-1.0,-1.0,-1.0,-1.0,-1.0,-3.95769852871e-05,-5.42461598658e-05,-7.41985019021e-05,0.0,0.0,0.0,0.0,0.0,0.0,0.0,0.0,0.0,-0.000179088228108,-8.79361409268e-05,-7.14004881064e-06,0.0,0.0,0.0,0.0,0.0,0.0,0.0,0.0,0.0
29350802843,1505,29352000000,honey/imu,2.72908321685e-05,3.33611106324e-05,0.707097935521,0.707115625428,-1.0,-1.0,-1.0,-1.0,-1.0,-1.0,-1.0,-1.0,-1.0,-3.61391482267e-05,-5.46616348142e-05,-7.35564851035e-05,0.0,0.0,0.0,0.0,0.0,0.0,0.0,0.0,0.0,-9.37073873543e-05,-3.22224077947e-05,6.27481436901e-06,0.0,0.0,0.0,0.0,0.0,0.0,0.0,0.0,0.0
29360895663,1506,29368000000,honey/imu,2.73547816889e-05,3.27691985575e-05,0.707097508779,0.707116052184,-1.0,-1.0,-1.0,-1.0,-1.0,-1.0,-1.0,-1.0,-1.0,-4.35217855247e-05,-5.4819657812e-05,-7.3284251273e-05,0.0,0.0,0.0,0.0,0.0,0.0,0.0,0.0,0.0,-2.85906904144e-05,6.4720615915e-07,1.2783815876e-05,0.0,0.0,0.0,0.0,0.0,0.0,0.0,0.0,0.0
29391261699,1507,29384000000,honey/imu,2.74141507404e-05,3.2181090534e-05,0.707097086309,0.707116474668,-1.0,-1.0,-1.0,-1.0,-1.0,-1.0,-1.0,-1.0,-1.0,-3.92730505084e-05,-5.38970052084e-05,-7.23862690571e-05,0.0,0.0,0.0,0.0,0.0,0.0,0.0,0.0,0.0,-6.73054206956e-05,-6.42630641973e-06,5.82282384991e-06,0.0,0.0,0.0,0.0,0.0,0.0,0.0,0.0,0.0
29401323302,1508,29400000000,honey/imu,2.7488405544e-05,3.16319814294e-05,0.707096673718,0.707116887269,-1.0,-1.0,-1.0,-1.0,-1.0,-1.0,-1.0,-1.0,-1.0,-3.40150080055e-05,-5.1537841038e-05,-7.04728348864e-05,0.0,0.0,0.0,0.0,0.0,0.0,0.0,0.0,0.0,-0.000156117491799,3.47407807115e-06,6.37990522221e-05,0.0,0.0,0.0,0.0,0.0,0.0,0.0,0.0,0.0
29411410008,1509,29416000000,honey/imu,2.75423270162e-05,3.10911600281e-05,0.707096272425,0.707117288572,-1.0,-1.0,-1.0,-1.0,-1.0,-1.0,-1.0,-1.0,-1.0,-3.91361987047e-05,-4.91117253583e-05,-6.85326085271e-05,0.0,0.0,0.0,0.0,0.0,0.0,0.0,0.0,0.0,-0.000135777166355,3.56590994646e-05,0.000109116110905,0.0,0.0,0.0,0.0,0.0,0.0,0.0,0.0,0.0
29431520582,1510,29432000000,honey/imu,2.75980252876e-05,3.03011995882e-05,0.707095689896,0.707117871116,-1.0,-1.0,-1.0,-1.0,-1.0,-1.0,-1.0,-1.0,-1.0,-3.3742043133e-05,-4.6285609097e-05,-6.60886443547e-05,0.0,0.0,0.0,0.0,0.0,0.0,0.0,0.0,0.0,-0.000139224547303,5.09745045924e-05,0.00012222728844,0.0,0.0,0.0,0.0,0.0,0.0,0.0,0.0,0.0
29451718694,1511,29448000000,honey/imu,2.76373241612e-05,3.00982495273e-05,0.707095507917,0.707118053096,-1.0,-1.0,-1.0,-1.0,-1.0,-1.0,-1.0,-1.0,-1.0,-2.89289213919e-05,-4.2827053918e-05,-6.43378661192e-05,0.0,0.0,0.0,0.0,0.0,0.0,0.0,0.0,0.0,-0.000159165545247,9.22294030617e-05,0.00018341330371,0.0,0.0,0.0,0.0,0.0,0.0,0.0,0.0,0.0
29471869462,1512,29464000000,honey/imu,2.76626450721e-05,2.96427717828e-05,0.707095136521,0.707118424498,-1.0,-1.0,-1.0,-1.0,-1.0,-1.0,-1.0,-1.0,-1.0,-3.40933544311e-05,-3.87831281944e-05,-6.36718366824e-05,0.0,0.0,0.0,0.0,0.0,0.0,0.0,0.0,0.0,-0.000169001626142,0.000150817955919,0.00026131278152,0.0,0.0,0.0,0.0,0.0,0.0,0.0,0.0,0.0
29481944628,1513,29480000000,honey/imu,2.76637207614e-05,2.92010273445e-05,0.707094764565,0.70711879646,-1.0,-1.0,-1.0,-1.0,-1.0,-1.0,-1.0,-1.0,-1.0,-3.14154343331e-05,-3.54386346395e-05,-6.38781696049e-05,0.0,0.0,0.0,0.0,0.0,0.0,0.0,0.0,0.0,-0.000171496071206,0.000177383347047,0.000277331290575,0.0,0.0,0.0,0.0,0.0,0.0,0.0,0.0,0.0
29502103544,1514,29496000000,honey/imu,2.76678093402e-05,2.87851837848e-05,0.707094386904,0.707119174125,-1.0,-1.0,-1.0,-1.0,-1.0,-1.0,-1.0,-1.0,-1.0,-3.02077095564e-05,-3.32354372187e-05,-6.48289329654e-05,0.0,0.0,0.0,0.0,0.0,0.0,0.0,0.0,0.0,-0.000166440352769,0.000181011555022,0.000282535425537,0.0,0.0,0.0,0.0,0.0,0.0,0.0,0.0,0.0
29512452726,1515,29512000000,honey/imu,2.76732331922e-05,2.83784072381e-05,0.707094000446,0.707119560585,-1.0,-1.0,-1.0,-1.0,-1.0,-1.0,-1.0,-1.0,-1.0,-3.70659564468e-05,-3.18727851396e-05,-6.57139519423e-05,0.0,0.0,0.0,0.0,0.0,0.0,0.0,0.0,0.0,-8.76088239967e-05,0.000152686677139,0.00022613424556,0.0,0.0,0.0,0.0,0.0,0.0,0.0,0.0,0.0
29532622139,1516,29528000000,honey/imu,2.76634157173e-05,2.797741007e-05,0.707093613603,0.70711994743,-1.0,-1.0,-1.0,-1.0,-1.0,-1.0,-1.0,-1.0,-1.0,-4.21878665482e-05,-3.09419133367e-05,-6.62687802329e-05,0.0,0.0,0.0,0.0,0.0,0.0,0.0,0.0,0.0,8.46006920035e-05,0.000190577462822,0.00017116824935,0.0,0.0,0.0,0.0,0.0,0.0,0.0,0.0,0.0
29542735601,1517,29544000000,honey/imu,2.76558217475e-05,2.75947972127e-05,0.707093224553,0.707120336481,-1.0,-1.0,-1.0,-1.0,-1.0,-1.0,-1.0,-1.0,-1.0,-4.19951918057e-05,-3.03673255394e-05,-6.72617827059e-05,0.0,0.0,0.0,0.0,0.0,0.0,0.0,0.0,0.0,6.09508860288e-05,0.000157044417048,0.000161301832722,0.0,0.0,0.0,0.0,0.0,0.0,0.0,0.0,0.0
29573034314,1518,29568000000,honey/imu,2.76143308445e-05,2.69974888091e-05,0.707092624941,0.707120936094,-1.0,-1.0,-1.0,-1.0,-1.0,-1.0,-1.0,-1.0,-1.0,-3.19372573552e-05,-3.36926619114e-05,-7.23510491255e-05,0.0,0.0,0.0,0.0,0.0,0.0,0.0,0.0,0.0,-0.000858218635935,-0.00128127511977,-0.00100388837431,0.0,0.0,0.0,0.0,0.0,0.0,0.0,0.0,0.0
29583118760,1519,29576000000,honey/imu,2.75593405327e-05,2.67773339585e-05,0.707092425263,0.707121135774,-1.0,-1.0,-1.0,-1.0,-1.0,-1.0,-1.0,-1.0,-1.0,-4.8638698798e-05,-2.92009412545e-05,-7.0596142668e-05,0.0,0.0,0.0,0.0,0.0,0.0,0.0,0.0,0.0,0.0027720436742,0.00442505806007,0.0037038044953,0.0,0.0,0.0,0.0,0.0,0.0,0.0,0.0,0.0
29593723556,1520,29592000000,honey/imu,2.75027551291e-05,2.63767336228e-05,0.707092010167,0.707121550871,-1.0,-1.0,-1.0,-1.0,-1.0,-1.0,-1.0,-1.0,-1.0,-4.89554277995e-05,-2.82297965906e-05,-7.25955248716e-05,0.0,0.0,0.0,0.0,0.0,0.0,0.0,0.0,0.0,6.77483167472e-05,0.000162546904261,0.000179762178003,0.0,0.0,0.0,0.0,0.0,0.0,0.0,0.0,0.0
29613937618,1521,29608000000,honey/imu,2.74309149054e-05,2.59746291697e-05,0.707091586423,0.707121974614,-1.0,-1.0,-1.0,-1.0,-1.0,-1.0,-1.0,-1.0,-1.0,-5.17272917593e-05,-2.70068535766e-05,-7.40053336484e-05,0.0,0.0,0.0,0.0,0.0,0.0,0.0,0.0,0.0,0.000101205404511,0.000182574370712,0.000168917431028,0.0,0.0,0.0,0.0,0.0,0.0,0.0,0.0,0.0
29624191142,1522,29624000000,honey/imu,2.73039216772e-05,2.55294584885e-05,0.707091160254,0.707122400786,-1.0,-1.0,-1.0,-1.0,-1.0,-1.0,-1.0,-1.0,-1.0,-5.86955694842e-05,-2.59871109707e-05,-7.41202313494e-05,0.0,0.0,0.0,0.0,0.0,0.0,0.0,0.0,0.0,0.000111079512205,0.000149718414355,9.30664586067e-05,0.0,0.0,0.0,0.0,0.0,0.0,0.0,0.0,0.0
29644402189,1523,29640000000,honey/imu,2.71612956142e-05,2.4913225304e-05,0.707090520065,0.707123040973,-1.0,-1.0,-1.0,-1.0,-1.0,-1.0,-1.0,-1.0,-1.0,-5.605542064e-05,-2.53262435109e-05,-7.3897063359e-05,0.0,0.0,0.0,0.0,0.0,0.0,0.0,0.0,0.0,5.28206778243e-05,6.64774755682e-05,1.21744498119e-05,0.0,0.0,0.0,0.0,0.0,0.0,0.0,0.0,0.0
29654460530,1524,29656000000,honey/imu,2.70807974901e-05,2.46929283896e-05,0.707090313761,0.707123247279,-1.0,-1.0,-1.0,-1.0,-1.0,-1.0,-1.0,-1.0,-1.0,-5.3173100485e-05,-2.47170767218e-05,-7.29390039274e-05,0.0,0.0,0.0,0.0,0.0,0.0,0.0,0.0,0.0,5.43851000558e-05,6.80844543357e-05,-4.14835997302e-06,0.0,0.0,0.0,0.0,0.0,0.0,0.0,0.0,0.0
29674761586,1525,29672000000,honey/imu,2.69432176042e-05,2.42579742623e-05,0.70708989676,0.70712366428,-1.0,-1.0,-1.0,-1.0,-1.0,-1.0,-1.0,-1.0,-1.0,-5.8188682191e-05,-2.4172542466e-05,-7.22229838698e-05,0.0,0.0,0.0,0.0,0.0,0.0,0.0,0.0,0.0,4.3470239516e-05,5.78630680075e-05,-4.27496079961e-06,0.0,0.0,0.0,0.0,0.0,0.0,0.0,0.0,0.0
29694876940,1526,29688000000,honey/imu,2.6822895007e-05,2.38425609561e-05,0.707089482159,0.70712407888,-1.0,-1.0,-1.0,-1.0,-1.0,-1.0,-1.0,-1.0,-1.0,-5.49307951779e-05,-2.40801950167e-05,-7.18907551407e-05,0.0,0.0,0.0,0.0,0.0,0.0,0.0,0.0,0.0,4.58842741679e-06,1.44872893019e-05,-3.1073767992e-06,0.0,0.0,0.0,0.0,0.0,0.0,0.0,0.0,0.0
29704930214,1527,29704000000,honey/imu,2.67159771989e-05,2.34403366374e-05,0.707089069062,0.707124491974,-1.0,-1.0,-1.0,-1.0,-1.0,-1.0,-1.0,-1.0,-1.0,-5.3461817792e-05,-2.41569806722e-05,-7.16670178206e-05,0.0,0.0,0.0,0.0,0.0,0.0,0.0,0.0,0.0,-9.13421739182e-06,-3.93311743668e-06,6.75840331389e-06,0.0,0.0,0.0,0.0,0.0,0.0,0.0,0.0,0.0
29725117236,1528,29720000000,honey/imu,2.65726382737e-05,2.30111499027e-05,0.707088658582,0.707124902452,-1.0,-1.0,-1.0,-1.0,-1.0,-1.0,-1.0,-1.0,-1.0,-5.78774812771e-05,-2.29322482134e-05,-7.10712178328e-05,0.0,0.0,0.0,0.0,0.0,0.0,0.0,0.0,0.0,5.30594886605e-05,3.00150743821e-05,-1.24107949415e-05,0.0,0.0,0.0,0.0,0.0,0.0,0.0,0.0,0.0
29735180781,1529,29736000000,honey/imu,2.64438792611e-05,2.26220363585e-05,0.707088253628,0.707125307403,-1.0,-1.0,-1.0,-1.0,-1.0,-1.0,-1.0,-1.0,-1.0,-5.25345410887e-05,-2.00837549941e-05,-6.97966636375e-05,0.0,0.0,0.0,0.0,0.0,0.0,0.0,0.0,0.0,0.000133855456236,4.67269375616e-05,-6.78984699475e-05,0.0,0.0,0.0,0.0,0.0,0.0,0.0,0.0,0.0
29755472797,1530,29752000000,honey/imu,2.6319108805e-05,2.22776740584e-05,0.707087857425,0.707125703601,-1.0,-1.0,-1.0,-1.0,-1.0,-1.0,-1.0,-1.0,-1.0,-4.88620918994e-05,-1.57916656284e-05,-6.78724340421e-05,0.0,0.0,0.0,0.0,0.0,0.0,0.0,0.0,0.0,0.000232760812466,4.14822430459e-05,-0.000166517426353,0.0,0.0,0.0,0.0,0.0,0.0,0.0,0.0,0.0
29775626878,1531,29768000000,honey/imu,2.61608165351e-05,2.19415078651e-05,0.707087472046,0.707126088976,-1.0,-1.0,-1.0,-1.0,-1.0,-1.0,-1.0,-1.0,-1.0,-4.84232733159e-05,-1.17005900863e-05,-6.5560382257e-05,0.0,0.0,0.0,0.0,0.0,0.0,0.0,0.0,0.0,0.000286838898657,-4.72495741698e-05,-0.000322972510837,0.0,0.0,0.0,0.0,0.0,0.0,0.0,0.0,0.0
29785684865,1532,29784000000,honey/imu,2.60166265492e-05,2.16483418884e-05,0.707087095548,0.707126465467,-1.0,-1.0,-1.0,-1.0,-1.0,-1.0,-1.0,-1.0,-1.0,-4.34155990798e-05,-9.12616935975e-06,-6.38692332848e-05,0.0,0.0,0.0,0.0,0.0,0.0,0.0,0.0,0.0,0.000155280243326,-0.00011483339389,-0.000277607415579,0.0,0.0,0.0,0.0,0.0,0.0,0.0,0.0,0.0
29805824404,1533,29800000000,honey/imu,2.58614664962e-05,2.13581506184e-05,0.707086726859,0.70712683415,-1.0,-1.0,-1.0,-1.0,-1.0,-1.0,-1.0,-1.0,-1.0,-4.25535399056e-05,-7.95815913509e-06,-6.24220188197e-05,0.0,0.0,0.0,0.0,0.0,0.0,0.0,0.0,0.0,7.72362239108e-05,-0.000141586242673,-0.000237574025874,0.0,0.0,0.0,0.0,0.0,0.0,0.0,0.0,0.0
29826039877,1534,29824000000,honey/imu,2.56606267109e-05,2.09408295701e-05,0.707086171541,0.707127389456,-1.0,-1.0,-1.0,-1.0,-1.0,-1.0,-1.0,-1.0,-1.0,-3.24538217526e-05,-1.51619391399e-05,-6.73679467885e-05,0.0,0.0,0.0,0.0,0.0,0.0,0.0,0.0,0.0,-0.00172073042766,-0.00121981273687,-7.43561290764e-05,0.0,0.0,0.0,0.0,0.0,0.0,0.0,0.0,0.0
29846241635,1535,29832000000,honey/imu,2.55031203776e-05,2.06610605209e-05,0.707085802689,0.7071277583,-1.0,-1.0,-1.0,-1.0,-1.0,-1.0,-1.0,-1.0,-1.0,-4.13760787789e-05,-7.11986597654e-06,-6.25799968261e-05,0.0,0.0,0.0,0.0,0.0,0.0,0.0,0.0,0.0,0.00510071034543,0.00330698154841,-0.000187058817201,0.0,0.0,0.0,0.0,0.0,0.0,0.0,0.0,0.0
29846241635,1536,29856000000,honey/imu,2.53444961976e-05,2.03903602454e-05,0.707085434048,0.707128126932,-1.0,-1.0,-1.0,-1.0,-1.0,-1.0,-1.0,-1.0,-1.0,-3.52991128909e-05,-1.3623714664e-05,-6.76980361315e-05,0.0,0.0,0.0,0.0,0.0,0.0,0.0,0.0,0.0,-0.00175850097977,-0.00113432476547,7.58628265823e-05,0.0,0.0,0.0,0.0,0.0,0.0,0.0,0.0,0.0
29866447062,1537,29864000000,honey/imu,2.52466502911e-05,2.0262486513e-05,0.707085257919,0.707128303058,-1.0,-1.0,-1.0,-1.0,-1.0,-1.0,-1.0,-1.0,-1.0,-3.99020296652e-05,-5.31143819751e-06,-6.22702634571e-05,0.0,0.0,0.0,0.0,0.0,0.0,0.0,0.0,0.0,0.00519059748463,0.00325209054946,-0.000381170341476,0.0,0.0,0.0,0.0,0.0,0.0,0.0,0.0,0.0
29886643986,1538,29880000000,honey/imu,2.50823305357e-05,2.00121701273e-05,0.707084893966,0.707128667002,-1.0,-1.0,-1.0,-1.0,-1.0,-1.0,-1.0,-1.0,-1.0,-3.87419088152e-05,-3.09933716394e-06,-6.15067969344e-05,0.0,0.0,0.0,0.0,0.0,0.0,0.0,0.0,0.0,-3.17196864312e-05,-4.43056422319e-05,-3.73004489846e-05,0.0,0.0,0.0,0.0,0.0,0.0,0.0,0.0,0.0
29896749751,1539,29896000000,honey/imu,2.49061457973e-05,1.97879068755e-05,0.70708453254,0.707129028418,-1.0,-1.0,-1.0,-1.0,-1.0,-1.0,-1.0,-1.0,-1.0,-3.7214763376e-05,6.73375839064e-07,-6.11436582591e-05,0.0,0.0,0.0,0.0,0.0,0.0,0.0,0.0,0.0,-8.3352347159e-05,-9.24249926881e-05,-5.59812447141e-05,0.0,0.0,0.0,0.0,0.0,0.0,0.0,0.0,0.0
29916999519,1540,29912000000,honey/imu,2.4716783621e-05,1.95904796149e-05,0.707084172675,0.707129388272,-1.0,-1.0,-1.0,-1.0,-1.0,-1.0,-1.0,-1.0,-1.0,-3.59328887548e-05,4.16417630044e-06,-6.08783590557e-05,0.0,0.0,0.0,0.0,0.0,0.0,0.0,0.0,0.0,-9.22199057449e-05,-8.21009057897e-05,-2.71258349149e-05,0.0,0.0,0.0,0.0,0.0,0.0,0.0,0.0,0.0
29927068425,1541,29928000000,honey/imu,2.45192870838e-05,1.94120639025e-05,0.707083814381,0.707129746555,-1.0,-1.0,-1.0,-1.0,-1.0,-1.0,-1.0,-1.0,-1.0,-3.49382919005e-05,6.25113633132e-06,-6.05914261808e-05,0.0,0.0,0.0,0.0,0.0,0.0,0.0,0.0,0.0,-0.000136147158208,-9.3572286528e-05,2.01440403491e-06,0.0,0.0,0.0,0.0,0.0,0.0,0.0,0.0,0.0
29947258529,1542,29944000000,honey/imu,2.43193406126e-05,1.92437755285e-05,0.707083460709,0.707130100215,-1.0,-1.0,-1.0,-1.0,-1.0,-1.0,-1.0,-1.0,-1.0,-3.4274656094e-05,7.05887404212e-06,-5.96339906203e-05,0.0,0.0,0.0,0.0,0.0,0.0,0.0,0.0,0.0,-0.000199372621312,-0.000111519620368,3.91177895309e-05,0.0,0.0,0.0,0.0,0.0,0.0,0.0,0.0,0.0
29967508231,1543,29960000000,honey/imu,2.41189061248e-05,1.90795809915e-05,0.707083112072,0.70713044884,-1.0,-1.0,-1.0,-1.0,-1.0,-1.0,-1.0,-1.0,-1.0,-3.40919971373e-05,7.30800261503e-06,-5.86797566129e-05,0.0,0.0,0.0,0.0,0.0,0.0,0.0,0.0,0.0,-0.000256533796413,-0.000119967172759,7.76494790644e-05,0.0,0.0,0.0,0.0,0.0,0.0,0.0,0.0,0.0
29977607637,1544,29976000000,honey/imu,2.39199865344e-05,1.89156632569e-05,0.707082769263,0.707130791638,-1.0,-1.0,-1.0,-1.0,-1.0,-1.0,-1.0,-1.0,-1.0,-3.41888356879e-05,7.05782615224e-06,-5.76508119721e-05,0.0,0.0,0.0,0.0,0.0,0.0,0.0,0.0,0.0,-0.00031057719547,-0.000124000383204,0.000106486993138,0.0,0.0,0.0,0.0,0.0,0.0,0.0,0.0,0.0
29997829115,1545,29992000000,honey/imu,2.37240775477e-05,1.87516308857e-05,0.707082432474,0.707131128415,-1.0,-1.0,-1.0,-1.0,-1.0,-1.0,-1.0,-1.0,-1.0,-3.4620768095e-05,6.60333311507e-06,-5.66971107472e-05,0.0,0.0,0.0,0.0,0.0,0.0,0.0,0.0,0.0,-0.000332898472492,-0.000121157790877,0.000112820360119,0.0,0.0,0.0,0.0,0.0,0.0,0.0,0.0,0.0
30007907925,1546,30008000000,honey/imu,2.3546420511e-05,1.86104513285e-05,0.707082103125,0.70713145775,-1.0,-1.0,-1.0,-1.0,-1.0,-1.0,-1.0,-1.0,-1.0,-3.57374966612e-05,6.27870158043e-06,-5.59373770715e-05,0.0,0.0,0.0,0.0,0.0,0.0,0.0,0.0,0.0,-0.000197852172615,-6.04917321916e-05,7.63552494962e-05,0.0,0.0,0.0,0.0,0.0,0.0,0.0,0.0,0.0
30028031526,1547,30024000000,honey/imu,2.332824255e-05,1.84487595508e-05,0.707081784396,0.707131776468,-1.0,-1.0,-1.0,-1.0,-1.0,-1.0,-1.0,-1.0,-1.0,-4.18070427567e-05,6.18271635432e-06,-5.54023715951e-05,0.0,0.0,0.0,0.0,0.0,0.0,0.0,0.0,0.0,-7.18288432252e-05,1.60602318562e-05,6.65345400667e-05,0.0,0.0,0.0,0.0,0.0,0.0,0.0,0.0,0.0
30048303435,1548,30040000000,honey/imu,2.31221141596e-05,1.83111776548e-05,0.707081472645,0.707132088207,-1.0,-1.0,-1.0,-1.0,-1.0,-1.0,-1.0,-1.0,-1.0,-3.89827583813e-05,6.18301390256e-06,-5.49095371929e-05,0.0,0.0,0.0,0.0,0.0,0.0,0.0,0.0,0.0,-7.20606666845e-05,2.1862508841e-05,6.2625225258e-05,0.0,0.0,0.0,0.0,0.0,0.0,0.0,0.0,0.0
30058515755,1549,30056000000,honey/imu,2.29219150592e-05,1.81943221437e-05,0.70708116921,0.70713239163,-1.0,-1.0,-1.0,-1.0,-1.0,-1.0,-1.0,-1.0,-1.0,-3.66169337082e-05,6.89123140005e-06,-5.38251121035e-05,0.0,0.0,0.0,0.0,0.0,0.0,0.0,0.0,0.0,-0.000109009942733,5.01379273382e-05,0.000111905041975,0.0,0.0,0.0,0.0,0.0,0.0,0.0,0.0,0.0
30078725955,1550,30072000000,honey/imu,2.26744891174e-05,1.80468910886e-05,0.70708087456,0.70713268627,-1.0,-1.0,-1.0,-1.0,-1.0,-1.0,-1.0,-1.0,-1.0,-4.29994167355e-05,7.62331649861e-06,-5.27455363197e-05,0.0,0.0,0.0,0.0,0.0,0.0,0.0,0.0,0.0,-0.000107501222079,6.56956686477e-05,0.000134167360352,0.0,0.0,0.0,0.0,0.0,0.0,0.0,0.0,0.0
30088783393,1551,30088000000,honey/imu,2.24352128644e-05,1.79199746215e-05,0.70708058614,0.70713297468,-1.0,-1.0,-1.0,-1.0,-1.0,-1.0,-1.0,-1.0,-1.0,-4.00572933304e-05,8.32711936195e-06,-5.19759922421e-05,0.0,0.0,0.0,0.0,0.0,0.0,0.0,0.0,0.0,-6.3242619525e-05,3.39784584059e-05,6.59066039339e-05,0.0,0.0,0.0,0.0,0.0,0.0,0.0,0.0,0.0
30119133585,1552,30104000000,honey/imu,2.22041836336e-05,1.78136346792e-05,0.70708030497,0.707133255839,-1.0,-1.0,-1.0,-1.0,-1.0,-1.0,-1.0,-1.0,-1.0,-3.74746997253e-05,9.36959600461e-06,-5.06534844067e-05,0.0,0.0,0.0,0.0,0.0,0.0,0.0,0.0,0.0,-8.53017804756e-05,4.99371313359e-05,9.51329668088e-05,0.0,0.0,0.0,0.0,0.0,0.0,0.0,0.0,0.0
30129191431,1553,30120000000,honey/imu,2.19697035415e-05,1.7717406201e-05,0.707080031212,0.707133529586,-1.0,-1.0,-1.0,-1.0,-1.0,-1.0,-1.0,-1.0,-1.0,-3.84426212313e-05,1.04423323588e-05,-4.94680957444e-05,0.0,0.0,0.0,0.0,0.0,0.0,0.0,0.0,0.0,-8.48402712484e-05,5.7645171068e-05,0.000107400548774,0.0,0.0,0.0,0.0,0.0,0.0,0.0,0.0,0.0
30149387009,1554,30136000000,honey/imu,2.16849826957e-05,1.75806528907e-05,0.70707976276,0.70713379803,-1.0,-1.0,-1.0,-1.0,-1.0,-1.0,-1.0,-1.0,-1.0,-4.44807289478e-05,1.10745416979e-05,-4.87136081936e-05,0.0,0.0,0.0,0.0,0.0,0.0,0.0,0.0,0.0,-4.43923086053e-05,3.6443325111e-05,6.32130718727e-05,0.0,0.0,0.0,0.0,0.0,0.0,0.0,0.0,0.0
30159448040,1555,30152000000,honey/imu,2.14153473436e-05,1.74648932578e-05,0.707079497645,0.707134063136,-1.0,-1.0,-1.0,-1.0,-1.0,-1.0,-1.0,-1.0,-1.0,-4.11723476689e-05,1.14912779529e-05,-4.82331573808e-05,0.0,0.0,0.0,0.0,0.0,0.0,0.0,0.0,0.0,-3.16795894795e-06,5.26950546088e-06,8.56096850232e-07,0.0,0.0,0.0,0.0,0.0,0.0,0.0,0.0,0.0
30169536630,1556,30168000000,honey/imu,2.11620673404e-05,1.73691240568e-05,0.707079234449,0.707134326321,-1.0,-1.0,-1.0,-1.0,-1.0,-1.0,-1.0,-1.0,-1.0,-3.80130998684e-05,1.17187912458e-05,-4.80065809354e-05,0.0,0.0,0.0,0.0,0.0,0.0,0.0,0.0,0.0,8.6305696118e-06,5.19492830731e-06,-5.3745141962e-07,0.0,0.0,0.0,0.0,0.0,0.0,0.0,0.0,0.0
30189691791,1557,30184000000,honey/imu,2.0877631605e-05,1.72416641024e-05,0.707078971132,0.707134589629,-1.0,-1.0,-1.0,-1.0,-1.0,-1.0,-1.0,-1.0,-1.0,-4.35118401574e-05,1.16747249814e-05,-4.8016692565e-05,0.0,0.0,0.0,0.0,0.0,0.0,0.0,0.0,0.0,-1.70218300872e-06,8.26151225058e-06,1.08859260793e-05,0.0,0.0,0.0,0.0,0.0,0.0,0.0,0.0,0.0
30199750701,1558,30200000000,honey/imu,2.06125581987e-05,1.71332066478e-05,0.707078708115,0.707134852636,-1.0,-1.0,-1.0,-1.0,-1.0,-1.0,-1.0,-1.0,-1.0,-4.01657851154e-05,1.1650599105e-05,-4.79355077181e-05,0.0,0.0,0.0,0.0,0.0,0.0,0.0,0.0,0.0,6.35465282628e-06,-9.7199316142e-07,-8.4602510442e-06,0.0,0.0,0.0,0.0,0.0,0.0,0.0,0.0,0.0
30221783969,1559,30216000000,honey/imu,2.02273662591e-05,1.70063919596e-05,0.707078325115,0.707135235619,-1.0,-1.0,-1.0,-1.0,-1.0,-1.0,-1.0,-1.0,-1.0,-3.81346667872e-05,1.22467057846e-05,-4.69991688765e-05,0.0,0.0,0.0,0.0,0.0,0.0,0.0,0.0,0.0,-5.13416031739e-05,4.37950557243e-05,7.15549244298e-05,0.0,0.0,0.0,0.0,0.0,0.0,0.0,0.0,0.0
30231840742,1560,30232000000,honey/imu,2.00625306879e-05,1.69201411812e-05,0.707078195095,0.707135365636,-1.0,-1.0,-1.0,-1.0,-1.0,-1.0,-1.0,-1.0,-1.0,-4.43868787872e-05,1.3888963471e-05,-4.59688799944e-05,0.0,0.0,0.0,0.0,0.0,0.0,0.0,0.0,0.0,-0.000125518756843,0.000117573925949,0.000189897959002,0.0,0.0,0.0,0.0,0.0,0.0,0.0,0.0,0.0
30251953241,1561,30248000000,honey/imu,1.97698459132e-05,1.68310436094e-05,0.707077947147,0.707135613573,-1.0,-1.0,-1.0,-1.0,-1.0,-1.0,-1.0,-1.0,-1.0,-4.11439234213e-05,1.67295992784e-05,-4.48752756373e-05,0.0,0.0,0.0,0.0,0.0,0.0,0.0,0.0,0.0,-0.000116165379716,0.000189261904976,0.000257303700687,0.0,0.0,0.0,0.0,0.0,0.0,0.0,0.0,0.0
30272080698,1562,30264000000,honey/imu,1.94776063649e-05,1.6781757499e-05,0.707077704773,0.707135855937,-1.0,-1.0,-1.0,-1.0,-1.0,-1.0,-1.0,-1.0,-1.0,-3.78459559316e-05,2.08387541677e-05,-4.36657067333e-05,0.0,0.0,0.0,0.0,0.0,0.0,0.0,0.0,0.0,4.79943852947e-05,0.000297567309423,0.000302784441766,0.0,0.0,0.0,0.0,0.0,0.0,0.0,0.0,0.0
30272080698,1563,30280000000,honey/imu,1.91776947572e-05,1.67655631996e-05,0.707077467775,0.707136092924,-1.0,-1.0,-1.0,-1.0,-1.0,-1.0,-1.0,-1.0,-1.0,-3.73764540127e-05,2.50658464422e-05,-4.22801168355e-05,0.0,0.0,0.0,0.0,0.0,0.0,0.0,0.0,0.0,0.000365135361968,0.000317951471601,0.000187783794465,0.0,0.0,0.0,0.0,0.0,0.0,0.0,0.0,0.0
30302252283,1564,30296000000,honey/imu,1.88189108058e-05,1.67347172476e-05,0.707077236992,0.707136323698,-1.0,-1.0,-1.0,-1.0,-1.0,-1.0,-1.0,-1.0,-1.0,-4.2315827998e-05,3.03707060517e-05,-4.02808582573e-05,0.0,0.0,0.0,0.0,0.0,0.0,0.0,0.0,0.0,0.000787913625136,0.000270277845846,-6.31606073082e-05,0.0,0.0,0.0,0.0,0.0,0.0,0.0,0.0,0.0
30312309212,1565,30312000000,honey/imu,1.84744720128e-05,1.67636841514e-05,0.707077012858,0.707136547822,-1.0,-1.0,-1.0,-1.0,-1.0,-1.0,-1.0,-1.0,-1.0,-3.44119535866e-05,3.59736178811e-05,-3.80409140999e-05,0.0,0.0,0.0,0.0,0.0,0.0,0.0,0.0,0.0,0.000895876843614,-7.63894409688e-05,-0.000476209972755,0.0,0.0,0.0,0.0,0.0,0.0,0.0,0.0,0.0
30342533059,1566,30336000000,honey/imu,1.79879611213e-05,1.68838127092e-05,0.707076675059,0.707136885602,-1.0,-1.0,-1.0,-1.0,-1.0,-1.0,-1.0,-1.0,-1.0,-2.00785973586e-05,3.46763488902e-05,-4.12918325834e-05,0.0,0.0,0.0,0.0,0.0,0.0,0.0,0.0,0.0,-0.00125423427007,-0.00146124019034,-0.00110626999335,0.0,0.0,0.0,0.0,0.0,0.0,0.0,0.0,0.0
30342533059,1567,30352000000,honey/imu,1.76423935249e-05,1.69859443522e-05,0.707076455101,0.707137105548,-1.0,-1.0,-1.0,-1.0,-1.0,-1.0,-1.0,-1.0,-1.0,-1.46003864402e-05,3.62681129903e-05,-4.12336642849e-05,0.0,0.0,0.0,0.0,0.0,0.0,0.0,0.0,0.0,-0.000136942314082,-9.12668691185e-05,-5.66606407632e-05,0.0,0.0,0.0,0.0,0.0,0.0,0.0,0.0,0.0
30362681248,1568,30360000000,honey/imu,1.74479605759e-05,1.70414222401e-05,0.707076352454,0.707137208189,-1.0,-1.0,-1.0,-1.0,-1.0,-1.0,-1.0,-1.0,-1.0,-2.45659279476e-05,4.41764697605e-05,-3.62913482998e-05,0.0,0.0,0.0,0.0,0.0,0.0,0.0,0.0,0.0,0.00473509114755,0.00332705620434,0.00175015622766,0.0,0.0,0.0,0.0,0.0,0.0,0.0,0.0,0.0
30382993537,1569,30376000000,honey/imu,1.70920013681e-05,1.71482289845e-05,0.70707613444,0.707137426191,-1.0,-1.0,-1.0,-1.0,-1.0,-1.0,-1.0,-1.0,-1.0,-2.66298951108e-05,4.46972373856e-05,-3.6089841222e-05,0.0,0.0,0.0,0.0,0.0,0.0,0.0,0.0,0.0,-1.46738329376e-05,-2.30598822335e-05,-1.25118600292e-05,0.0,0.0,0.0,0.0,0.0,0.0,0.0,0.0,0.0
30382993537,1570,30392000000,honey/imu,1.67502251317e-05,1.72822997553e-05,0.707075920248,0.707137640368,-1.0,-1.0,-1.0,-1.0,-1.0,-1.0,-1.0,-1.0,-1.0,-2.32003046928e-05,4.60961522046e-05,-3.51856299954e-05,0.0,0.0,0.0,0.0,0.0,0.0,0.0,0.0,0.0,-4.80650567632e-05,-5.86462887221e-05,-3.85579514627e-05,0.0,0.0,0.0,0.0,0.0,0.0,0.0,0.0,0.0
30413162622,1571,30408000000,honey/imu,1.63880920118e-05,1.74229029223e-05,0.707075712654,0.70713784795,-1.0,-1.0,-1.0,-1.0,-1.0,-1.0,-1.0,-1.0,-1.0,-2.33206473258e-05,4.89392177452e-05,-3.38782821357e-05,0.0,0.0,0.0,0.0,0.0,0.0,0.0,0.0,0.0,-0.000123916900996,-0.000125434536721,-8.98793319518e-05,0.0,0.0,0.0,0.0,0.0,0.0,0.0,0.0,0.0
30423252246,1572,30424000000,honey/imu,1.60341299686e-05,1.76044595703e-05,0.707075513508,0.707138047082,-1.0,-1.0,-1.0,-1.0,-1.0,-1.0,-1.0,-1.0,-1.0,-1.97260937553e-05,5.1961126955e-05,-3.21901989218e-05,0.0,0.0,0.0,0.0,0.0,0.0,0.0,0.0,0.0,-0.000255502996311,-0.000168719518002,-8.77732739433e-05,0.0,0.0,0.0,0.0,0.0,0.0,0.0,0.0,0.0
30443476989,1573,30440000000,honey/imu,1.56593625101e-05,1.7792072592e-05,0.707075323333,0.707138237244,-1.0,-1.0,-1.0,-1.0,-1.0,-1.0,-1.0,-1.0,-1.0,-2.02918496953e-05,5.40736978948e-05,-3.06863505766e-05,0.0,0.0,0.0,0.0,0.0,0.0,0.0,0.0,0.0,-0.000244931106765,-0.000122209968176,-3.64586336592e-05,0.0,0.0,0.0,0.0,0.0,0.0,0.0,0.0,0.0
30463683728,1574,30456000000,honey/imu,1.51305435189e-05,1.81192724954e-05,0.707075043841,0.707138516714,-1.0,-1.0,-1.0,-1.0,-1.0,-1.0,-1.0,-1.0,-1.0,-1.8028729534e-05,5.52168305449e-05,-2.9750582961e-05,0.0,0.0,0.0,0.0,0.0,0.0,0.0,0.0,0.0,-0.000156603171003,-6.68252544128e-05,-9.76482098336e-06,0.0,0.0,0.0,0.0,0.0,0.0,0.0,0.0,0.0
30473816004,1575,30472000000,honey/imu,1.49141198389e-05,1.82203606157e-05,0.707074961685,0.707138598864,-1.0,-1.0,-1.0,-1.0,-1.0,-1.0,-1.0,-1.0,-1.0,-2.03910968387e-05,5.61270887404e-05,-2.90467488568e-05,0.0,0.0,0.0,0.0,0.0,0.0,0.0,0.0,0.0,-7.40459581444e-05,-5.59583395628e-05,-3.45358221328e-05,0.0,0.0,0.0,0.0,0.0,0.0,0.0,0.0,0.0
30493976075,1576,30488000000,honey/imu,1.43820704813e-05,1.85628291403e-05,0.707074690346,0.707138870181,-1.0,-1.0,-1.0,-1.0,-1.0,-1.0,-1.0,-1.0,-1.0,-1.73265477993e-05,5.60910463478e-05,-2.89575057796e-05,0.0,0.0,0.0,0.0,0.0,0.0,0.0,0.0,0.0,-2.49224413587e-06,-2.74319239802e-06,-2.18619105818e-06,0.0,0.0,0.0,0.0,0.0,0.0,0.0,0.0,0.0
30504234371,1577,30504000000,honey/imu,1.41652938396e-05,1.86631062535e-05,0.707074608965,0.707138951556,-1.0,-1.0,-1.0,-1.0,-1.0,-1.0,-1.0,-1.0,-1.0,-2.05968600987e-05,5.60461100808e-05,-2.87728779514e-05,0.0,0.0,0.0,0.0,0.0,0.0,0.0,0.0,0.0,2.73754640457e-06,3.4314615277e-06,7.18514054871e-06,0.0,0.0,0.0,0.0,0.0,0.0,0.0,0.0,0.0
30524442161,1578,30520000000,honey/imu,1.38001195912e-05,1.88931455446e-05,0.707074433846,0.707139126661,-1.0,-1.0,-1.0,-1.0,-1.0,-1.0,-1.0,-1.0,-1.0,-1.73841084499e-05,5.60428161497e-05,-2.86839706942e-05,0.0,0.0,0.0,0.0,0.0,0.0,0.0,0.0,0.0,-3.51967102164e-06,-2.65144742393e-06,-2.4732088531e-06,0.0,0.0,0.0,0.0,0.0,0.0,0.0,0.0,0.0
30534519034,1579,30536000000,honey/imu,1.34190561603e-05,1.91063604814e-05,0.70707425891,0.707139301582,-1.0,-1.0,-1.0,-1.0,-1.0,-1.0,-1.0,-1.0,-1.0,-2.00432906979e-05,5.59859340986e-05,-2.86669265113e-05,0.0,0.0,0.0,0.0,0.0,0.0,0.0,0.0,0.0,-0.000104145162056,-3.88445527112e-05,2.83153322112e-06,0.0,0.0,0.0,0.0,0.0,0.0,0.0,0.0,0.0
30544759674,1580,30552000000,honey/imu,1.30587943436e-05,1.93435622249e-05,0.707074084527,0.707139475949,-1.0,-1.0,-1.0,-1.0,-1.0,-1.0,-1.0,-1.0,-1.0,-1.67000469756e-05,5.60886609922e-05,-2.86471627558e-05,0.0,0.0,0.0,0.0,0.0,0.0,0.0,0.0,0.0,-0.000124856126763,-4.87020454423e-05,-6.28449927599e-06,0.0,0.0,0.0,0.0,0.0,0.0,0.0,0.0,0.0
30575180717,1581,30568000000,honey/imu,1.26786342662e-05,1.95637644088e-05,0.707073909395,0.707139651066,-1.0,-1.0,-1.0,-1.0,-1.0,-1.0,-1.0,-1.0,-1.0,-2.02594494067e-05,5.59882129229e-05,-2.91084015946e-05,0.0,0.0,0.0,0.0,0.0,0.0,0.0,0.0,0.0,-0.00021534288544,-7.39995741762e-05,-5.03983597046e-06,0.0,0.0,0.0,0.0,0.0,0.0,0.0,0.0,0.0
30585370803,1582,30584000000,honey/imu,1.23227118296e-05,1.98200562361e-05,0.707073735522,0.707139824922,-1.0,-1.0,-1.0,-1.0,-1.0,-1.0,-1.0,-1.0,-1.0,-1.6459567284e-05,5.58894589256e-05,-2.96880441314e-05,0.0,0.0,0.0,0.0,0.0,0.0,0.0,0.0,0.0,-0.000168152964682,-4.45573019138e-05,2.44877726809e-06,0.0,0.0,0.0,0.0,0.0,0.0,0.0,0.0,0.0
30605523901,1583,30600000000,honey/imu,1.1929458459e-05,2.00578500002e-05,0.707073567123,0.707139993305,-1.0,-1.0,-1.0,-1.0,-1.0,-1.0,-1.0,-1.0,-1.0,-2.21797597761e-05,5.58594086957e-05,-2.97211698853e-05,0.0,0.0,0.0,0.0,0.0,0.0,0.0,0.0,0.0,-9.64691452352e-05,1.85767731925e-05,4.97726822368e-05,0.0,0.0,0.0,0.0,0.0,0.0,0.0,0.0,0.0
30625878099,1584,30616000000,honey/imu,1.15485114259e-05,2.03178313577e-05,0.707073401924,0.707140158487,-1.0,-1.0,-1.0,-1.0,-1.0,-1.0,-1.0,-1.0,-1.0,-1.90056660997e-05,5.57808506581e-05,-2.97832565812e-05,0.0,0.0,0.0,0.0,0.0,0.0,0.0,0.0,0.0,-0.000133963872496,2.95945018526e-05,5.91513723153e-05,0.0,0.0,0.0,0.0,0.0,0.0,0.0,0.0,0.0
30656124392,1585,30632000000,honey/imu,1.1177929525e-05,2.05953364711e-05,0.707073235659,0.707140324735,-1.0,-1.0,-1.0,-1.0,-1.0,-1.0,-1.0,-1.0,-1.0,-1.60959641594e-05,5.55243940718e-05,-3.07767743854e-05,0.0,0.0,0.0,0.0,0.0,0.0,0.0,0.0,0.0,-0.000228018474072,7.38461595318e-05,0.000136274022867,0.0,0.0,0.0,0.0,0.0,0.0,0.0,0.0,0.0
30656124392,1586,30648000000,honey/imu,1.08071140776e-05,2.08759422321e-05,0.70707306182,0.707140498554,-1.0,-1.0,-1.0,-1.0,-1.0,-1.0,-1.0,-1.0,-1.0,-1.68995187216e-05,5.51207554785e-05,-3.28168085963e-05,0.0,0.0,0.0,0.0,0.0,0.0,0.0,0.0,0.0,-0.000327702763116,0.000139362346173,0.00024289809539,0.0,0.0,0.0,0.0,0.0,0.0,0.0,0.0,0.0
30666203895,1587,30664000000,honey/imu,1.03924336278e-05,2.11128794671e-05,0.707072878162,0.707140682194,-1.0,-1.0,-1.0,-1.0,-1.0,-1.0,-1.0,-1.0,-1.0,-2.25590404969e-05,5.48456886405e-05,-3.46630413623e-05,0.0,0.0,0.0,0.0,0.0,0.0,0.0,0.0,0.0,-0.0002501086285,0.000192441886167,0.000282833691639,0.0,0.0,0.0,0.0,0.0,0.0,0.0,0.0,0.0
30686349547,1588,30680000000,honey/imu,9.9923382591e-06,2.13635083029e-05,0.707072689064,0.707140871272,-1.0,-1.0,-1.0,-1.0,-1.0,-1.0,-1.0,-1.0,-1.0,-1.99583624511e-05,5.47740572687e-05,-3.54431132047e-05,0.0,0.0,0.0,0.0,0.0,0.0,0.0,0.0,0.0,-0.000102754062445,0.000120804280883,0.00015639279324,0.0,0.0,0.0,0.0,0.0,0.0,0.0,0.0,0.0
30696404377,1589,30696000000,honey/imu,9.60740728178e-06,2.16298233779e-05,0.707072500578,0.707141059738,-1.0,-1.0,-1.0,-1.0,-1.0,-1.0,-1.0,-1.0,-1.0,-1.72144586403e-05,5.48618013854e-05,-3.50363349948e-05,0.0,0.0,0.0,0.0,0.0,0.0,0.0,0.0,0.0,-1.53024768672e-05,5.03452730564e-05,6.01537596593e-05,0.0,0.0,0.0,0.0,0.0,0.0,0.0,0.0,0.0
30716550170,1590,30712000000,honey/imu,9.22898169473e-06,2.19027057695e-05,0.707072313967,0.707141246327,-1.0,-1.0,-1.0,-1.0,-1.0,-1.0,-1.0,-1.0,-1.0,-1.77858456526e-05,5.48408465651e-05,-3.47383876617e-05,0.0,0.0,0.0,0.0,0.0,0.0,0.0,0.0,0.0,1.01652049437e-05,5.60619831854e-06,4.65827309083e-06,0.0,0.0,0.0,0.0,0.0,0.0,0.0,0.0,0.0
30726635441,1591,30728000000,honey/imu,8.80990055784e-06,2.21336526316e-05,0.707072129674,0.7071414306,-1.0,-1.0,-1.0,-1.0,-1.0,-1.0,-1.0,-1.0,-1.0,-2.35176641094e-05,5.48372489964e-05,-3.41969175808e-05,0.0,0.0,0.0,0.0,0.0,0.0,0.0,0.0,0.0,-1.9953314792e-05,7.50375240051e-05,8.13864037948e-05,0.0,0.0,0.0,0.0,0.0,0.0,0.0,0.0,0.0
30746851400,1592,30744000000,honey/imu,8.40203848156e-06,2.23756561968e-05,0.707071951248,0.707141609006,-1.0,-1.0,-1.0,-1.0,-1.0,-1.0,-1.0,-1.0,-1.0,-2.23210891468e-05,5.52411571325e-05,-3.27101717884e-05,0.0,0.0,0.0,0.0,0.0,0.0,0.0,0.0,0.0,5.66451807844e-05,0.000217678005928,0.000190934452696,0.0,0.0,0.0,0.0,0.0,0.0,0.0,0.0,0.0
30767125657,1593,30768000000,honey/imu,7.8262792659e-06,2.2788792155e-05,0.707071700118,0.707141860104,-1.0,-1.0,-1.0,-1.0,-1.0,-1.0,-1.0,-1.0,-1.0,-2.52372870984e-06,5.92006602896e-05,-2.86752209869e-05,0.0,0.0,0.0,0.0,0.0,0.0,0.0,0.0,0.0,0.000799884317329,-0.00107036696582,-0.00135387782689,0.0,0.0,0.0,0.0,0.0,0.0,0.0,0.0,0.0
30777191072,1594,30776000000,honey/imu,7.60190351196e-06,2.28901174466e-05,0.707071616124,0.707141944089,-1.0,-1.0,-1.0,-1.0,-1.0,-1.0,-1.0,-1.0,-1.0,-2.17549962468e-05,5.75746324284e-05,-2.96960684675e-05,0.0,0.0,0.0,0.0,0.0,0.0,0.0,0.0,0.0,-0.00116548451158,0.00412250756847,0.00459050943331,0.0,0.0,0.0,0.0,0.0,0.0,0.0,0.0,0.0
30797393859,1595,30792000000,honey/imu,7.15405218898e-06,2.31117420186e-05,0.707071455016,0.707142105179,-1.0,-1.0,-1.0,-1.0,-1.0,-1.0,-1.0,-1.0,-1.0,-2.84896762894e-05,5.92809788402e-05,-2.83574264306e-05,0.0,0.0,0.0,0.0,0.0,0.0,0.0,0.0,0.0,0.000474405753361,0.000150977797648,2.19500539453e-06,0.0,0.0,0.0,0.0,0.0,0.0,0.0,0.0,0.0
30807475121,1596,30808000000,honey/imu,6.7215796131e-06,2.33595397542e-05,0.707071297214,0.707142262961,-1.0,-1.0,-1.0,-1.0,-1.0,-1.0,-1.0,-1.0,-1.0,-2.44616019695e-05,6.1238035539e-05,-2.7222874922e-05,0.0,0.0,0.0,0.0,0.0,0.0,0.0,0.0,0.0,0.000564678158869,3.0606003793e-06,-0.000132281448401,0.0,0.0,0.0,0.0,0.0,0.0,0.0,0.0,0.0
30827634130,1597,30824000000,honey/imu,6.30720214365e-06,2.36346173015e-05,0.707071141824,0.70714241833,-1.0,-1.0,-1.0,-1.0,-1.0,-1.0,-1.0,-1.0,-1.0,-1.99823439706e-05,6.29599554273e-05,-2.60993327381e-05,0.0,0.0,0.0,0.0,0.0,0.0,0.0,0.0,0.0,0.000496294246533,-0.000109441429825,-0.000236600904832,0.0,0.0,0.0,0.0,0.0,0.0,0.0,0.0,0.0
30837869053,1598,30840000000,honey/imu,5.86099312667e-06,2.38800923241e-05,0.707070988073,0.707142572061,-1.0,-1.0,-1.0,-1.0,-1.0,-1.0,-1.0,-1.0,-1.0,-2.51650702131e-05,6.32634796918e-05,-2.57282753457e-05,0.0,0.0,0.0,0.0,0.0,0.0,0.0,0.0,0.0,6.24269550761e-05,-3.03886404153e-05,-2.86889264944e-05,0.0,0.0,0.0,0.0,0.0,0.0,0.0,0.0,0.0
30857984220,1599,30856000000,honey/imu,5.43405479156e-06,2.4144530705e-05,0.707070834858,0.707142725255,-1.0,-1.0,-1.0,-1.0,-1.0,-1.0,-1.0,-1.0,-1.0,-2.18817692784e-05,6.31707262222e-05,-2.57142134094e-05,0.0,0.0,0.0,0.0,0.0,0.0,0.0,0.0,0.0,-1.68503695139e-05,-5.0725524731e-06,5.86098896235e-06,0.0,0.0,0.0,0.0,0.0,0.0,0.0,0.0,0.0
30878118279,1600,30872000000,honey/imu,5.01886920084e-06,2.44269829421e-05,0.707070685619,0.707142874471,-1.0,-1.0,-1.0,-1.0,-1.0,-1.0,-1.0,-1.0,-1.0,-1.97990577088e-05,6.42364879577e-05,-2.45606672673e-05,0.0,0.0,0.0,0.0,0.0,0.0,0.0,0.0,0.0,0.0001463809575,-0.000102247828336,-0.000146492744633,0.0,0.0,0.0,0.0,0.0,0.0,0.0,0.0,0.0
30888175449,1601,30888000000,honey/imu,4.56924488822e-06,2.46836749046e-05,0.707070542309,0.707143017762,-1.0,-1.0,-1.0,-1.0,-1.0,-1.0,-1.0,-1.0,-1.0,-2.35049236892e-05,6.53808807697e-05,-2.32404939931e-05,0.0,0.0,0.0,0.0,0.0,0.0,0.0,0.0,0.0,0.000114207434501,-0.000124100926595,-0.000162070422682,0.0,0.0,0.0,0.0,0.0,0.0,0.0,0.0,0.0
30908313715,1602,30904000000,honey/imu,4.13909899499e-06,2.4967726368e-05,0.707070402941,0.707143157108,-1.0,-1.0,-1.0,-1.0,-1.0,-1.0,-1.0,-1.0,-1.0,-1.8855225903e-05,6.63189820877e-05,-2.26858697657e-05,0.0,0.0,0.0,0.0,0.0,0.0,0.0,0.0,0.0,-6.58811511038e-05,-0.000144870040887,-0.000133097008334,0.0,0.0,0.0,0.0,0.0,0.0,0.0,0.0,0.0
30918368993,1603,30920000000,honey/imu,3.72054028255e-06,2.52736030242e-05,0.70707026302,0.707143297005,-1.0,-1.0,-1.0,-1.0,-1.0,-1.0,-1.0,-1.0,-1.0,-1.75717675612e-05,6.73735573162e-05,-2.26729148626e-05,0.0,0.0,0.0,0.0,0.0,0.0,0.0,0.0,0.0,-8.37530634923e-05,-0.00019517010603,-0.000176182312206,0.0,0.0,0.0,0.0,0.0,0.0,0.0,0.0,0.0
30938502932,1604,30936000000,honey/imu,3.27335862021e-06,2.55579174216e-05,0.707070120122,0.707143439881,-1.0,-1.0,-1.0,-1.0,-1.0,-1.0,-1.0,-1.0,-1.0,-1.9935564868e-05,6.79729214363e-05,-2.33153455776e-05,0.0,0.0,0.0,0.0,0.0,0.0,0.0,0.0,0.0,-8.90056381533e-05,-0.000111239335711,-8.92310839145e-05,0.0,0.0,0.0,0.0,0.0,0.0,0.0,0.0,0.0
30958670815,1605,30952000000,honey/imu,2.85551534535e-06,2.58719443393e-05,0.707069967726,0.707143592251,-1.0,-1.0,-1.0,-1.0,-1.0,-1.0,-1.0,-1.0,-1.0,-1.44843931799e-05,6.79065113312e-05,-2.52810116447e-05,0.0,0.0,0.0,0.0,0.0,0.0,0.0,0.0,0.0,-0.000177241572057,-0.000154120771784,-0.000117155309827,0.0,0.0,0.0,0.0,0.0,0.0,0.0,0.0,0.0
30968729061,1606,30968000000,honey/imu,2.43529404463e-06,2.61757083763e-05,0.707069799587,0.707143760364,-1.0,-1.0,-1.0,-1.0,-1.0,-1.0,-1.0,-1.0,-1.0,-1.53377315753e-05,6.70266564913e-05,-2.83088842054e-05,0.0,0.0,0.0,0.0,0.0,0.0,0.0,0.0,0.0,-0.000323218465775,-0.000216554450943,-0.000144030850186,0.0,0.0,0.0,0.0,0.0,0.0,0.0,0.0,0.0
30989035762,1607,30984000000,honey/imu,2.05742640748e-06,2.6509059758e-05,0.707069612479,0.707143947441,-1.0,-1.0,-1.0,-1.0,-1.0,-1.0,-1.0,-1.0,-1.0,-9.81248575442e-06,6.55359134839e-05,-3.19588356365e-05,0.0,0.0,0.0,0.0,0.0,0.0,0.0,0.0,0.0,-0.000472371811074,-0.000269812757045,-0.000159302986093,0.0,0.0,0.0,0.0,0.0,0.0,0.0,0.0,0.0
30999119914,1608,31000000000,honey/imu,1.66812709373e-06,2.68304082475e-05,0.707069410842,0.707144149045,-1.0,-1.0,-1.0,-1.0,-1.0,-1.0,-1.0,-1.0,-1.0,-1.31734036477e-05,6.40161424674e-05,-3.54894487317e-05,0.0,0.0,0.0,0.0,0.0,0.0,0.0,0.0,0.0,-0.000436424904767,-0.000211724763441,-9.36787078711e-05,0.0,0.0,0.0,0.0,0.0,0.0,0.0,0.0,0.0
31019471037,1609,31016000000,honey/imu,1.27375398417e-06,2.71799307385e-05,0.707069204218,0.707144355635,-1.0,-1.0,-1.0,-1.0,-1.0,-1.0,-1.0,-1.0,-1.0,-9.75196593387e-06,6.21254828839e-05,-3.96023280885e-05,0.0,0.0,0.0,0.0,0.0,0.0,0.0,0.0,0.0,-0.000613892284844,6.71783527647e-05,0.000256749980769,0.0,0.0,0.0,0.0,0.0,0.0,0.0,0.0,0.0
31039618075,1610,31032000000,honey/imu,8.94814861143e-07,2.75287668679e-05,0.707068978033,0.707144581783,-1.0,-1.0,-1.0,-1.0,-1.0,-1.0,-1.0,-1.0,-1.0,-7.09252394176e-06,6.00307458101e-05,-4.34607143065e-05,0.0,0.0,0.0,0.0,0.0,0.0,0.0,0.0,0.0,-0.000671543503517,0.000132382025648,0.000343263582966,0.0,0.0,0.0,0.0,0.0,0.0,0.0,0.0,0.0
31049675200,1611,31048000000,honey/imu,5.28525637796e-07,2.78714029187e-05,0.707068731921,0.707144827855,-1.0,-1.0,-1.0,-1.0,-1.0,-1.0,-1.0,-1.0,-1.0,-8.28455030685e-06,5.87222922609e-05,-4.67381618537e-05,0.0,0.0,0.0,0.0,0.0,0.0,0.0,0.0,0.0,-0.000407998293754,0.000389162590704,0.000533142028477,0.0,0.0,0.0,0.0,0.0,0.0,0.0,0.0,0.0
31069792711,1612,31064000000,honey/imu,1.17403251315e-07,2.81735901084e-05,0.707068476899,0.707145082838,-1.0,-1.0,-1.0,-1.0,-1.0,-1.0,-1.0,-1.0,-1.0,-1.72782731947e-05,6.11479836558e-05,-4.67994732176e-05,0.0,0.0,0.0,0.0,0.0,0.0,0.0,0.0,0.0,0.000836775631357,0.000868261385919,0.000623936761697,0.0,0.0,0.0,0.0,0.0,0.0,0.0,0.0,0.0
31080045503,1613,31080000000,honey/imu,-2.86158771814e-07,2.85057218837e-05,0.707068221644,0.707145338052,-1.0,-1.0,-1.0,-1.0,-1.0,-1.0,-1.0,-1.0,-1.0,-1.44113630541e-05,6.56417349803e-05,-4.50541496836e-05,0.0,0.0,0.0,0.0,0.0,0.0,0.0,0.0,0.0,0.00147877904221,0.000309005175963,-2.11418130695e-05,0.0,0.0,0.0,0.0,0.0,0.0,0.0,0.0,0.0
31100366496,1614,31096000000,honey/imu,-6.68775183285e-07,2.88722029288e-05,0.707067963903,0.70714559575,-1.0,-1.0,-1.0,-1.0,-1.0,-1.0,-1.0,-1.0,-1.0,-9.00986437738e-06,6.84201621333e-05,-4.44243032046e-05,0.0,0.0,0.0,0.0,0.0,0.0,0.0,0.0,0.0,0.000921314525488,-0.000217859079434,-0.0004234701735,0.0,0.0,0.0,0.0,0.0,0.0,0.0,0.0,0.0
31110464079,1615,31112000000,honey/imu,-1.07680755388e-06,2.92158582767e-05,0.707067701637,0.707145857972,-1.0,-1.0,-1.0,-1.0,-1.0,-1.0,-1.0,-1.0,-1.0,-1.19190991189e-05,6.92398761599e-05,-4.47278560649e-05,0.0,0.0,0.0,0.0,0.0,0.0,0.0,0.0,0.0,0.000257133951921,-0.000197286836208,-0.000237060204622,0.0,0.0,0.0,0.0,0.0,0.0,0.0,0.0,0.0
31130643311,1616,31128000000,honey/imu,-1.45321419441e-06,2.95901014949e-05,0.707067431639,0.707146127924,-1.0,-1.0,-1.0,-1.0,-1.0,-1.0,-1.0,-1.0,-1.0,-5.43276991165e-06,6.95603668287e-05,-4.59579751207e-05,0.0,0.0,0.0,0.0,0.0,0.0,0.0,0.0,0.0,7.73787621262e-05,-0.000277266741852,-0.000293544737836,0.0,0.0,0.0,0.0,0.0,0.0,0.0,0.0,0.0
31150807890,1617,31152000000,honey/imu,-1.98047416142e-06,3.01574586951e-05,0.707067003506,0.707146555984,-1.0,-1.0,-1.0,-1.0,-1.0,-1.0,-1.0,-1.0,-1.0,2.42609725024e-06,6.16651308598e-05,-5.25054922972e-05,0.0,0.0,0.0,0.0,0.0,0.0,0.0,0.0,0.0,-0.00172553894317,-0.00121114879723,-0.000978858278936,0.0,0.0,0.0,0.0,0.0,0.0,0.0,0.0,0.0
31160903862,1618,31160000000,honey/imu,-2.19330116308e-06,3.03328252887e-05,0.70706686781,0.707146691656,-1.0,-1.0,-1.0,-1.0,-1.0,-1.0,-1.0,-1.0,-1.0,-6.624897101e-06,6.86222525725e-05,-4.7973105871e-05,0.0,0.0,0.0,0.0,0.0,0.0,0.0,0.0,0.0,0.00454275741308,0.00283604290809,0.00219176525795,0.0,0.0,0.0,0.0,0.0,0.0,0.0,0.0,0.0
31181019246,1619,31176000000,honey/imu,-2.55982640069e-06,3.06927258691e-05,0.707066590653,0.707146968765,-1.0,-1.0,-1.0,-1.0,-1.0,-1.0,-1.0,-1.0,-1.0,-5.03977775454e-06,6.77265885941e-05,-4.60880913649e-05,0.0,0.0,0.0,0.0,0.0,0.0,0.0,0.0,0.0,-0.000451033136136,-0.000270545514958,-0.00020016003937,0.0,0.0,0.0,0.0,0.0,0.0,0.0,0.0,0.0
31191075785,1620,31192000000,honey/imu,-2.90449951866e-06,3.10677134641e-05,0.707066333418,0.707147225953,-1.0,-1.0,-1.0,-1.0,-1.0,-1.0,-1.0,-1.0,-1.0,-2.95194622226e-06,6.70813220055e-05,-4.202404972e-05,0.0,0.0,0.0,0.0,0.0,0.0,0.0,0.0,0.0,-0.000628378381189,-0.00031947625965,-0.000177384849936,0.0,0.0,0.0,0.0,0.0,0.0,0.0,0.0,0.0
31211225758,1621,31208000000,honey/imu,-3.48160922195e-06,3.16376864823e-05,0.707066013404,0.707147545903,-1.0,-1.0,-1.0,-1.0,-1.0,-1.0,-1.0,-1.0,-1.0,-8.82011807756e-06,6.69749758067e-05,-3.80211912147e-05,0.0,0.0,0.0,0.0,0.0,0.0,0.0,0.0,0.0,-0.00039495328534,-0.00020488571611,-0.000109191653401,0.0,0.0,0.0,0.0,0.0,0.0,0.0,0.0,0.0
31231415994,1622,31224000000,honey/imu,-3.69132496418e-06,3.1803125252e-05,0.70706591431,0.707147644976,-1.0,-1.0,-1.0,-1.0,-1.0,-1.0,-1.0,-1.0,-1.0,-7.83009027286e-06,6.63174260865e-05,-3.50327479475e-05,0.0,0.0,0.0,0.0,0.0,0.0,0.0,0.0,0.0,-0.000487916621785,-4.36657044126e-05,0.000214367242987,0.0,0.0,0.0,0.0,0.0,0.0,0.0,0.0,0.0
31241472082,1623,31240000000,honey/imu,-4.30729967657e-06,3.23865050251e-05,0.707065657481,0.707147901746,-1.0,-1.0,-1.0,-1.0,-1.0,-1.0,-1.0,-1.0,-1.0,-6.05487813444e-06,6.52034628729e-05,-3.36320194363e-05,0.0,0.0,0.0,0.0,0.0,0.0,0.0,0.0,0.0,-0.000392002321411,-3.56548313035e-05,0.000160425337673,0.0,0.0,0.0,0.0,0.0,0.0,0.0,0.0,0.0
31261614964,1624,31256000000,honey/imu,-4.50689732517e-06,3.25510231159e-05,0.707065562228,0.707147996978,-1.0,-1.0,-1.0,-1.0,-1.0,-1.0,-1.0,-1.0,-1.0,-6.20411781549e-06,6.4366147852e-05,-3.3674717756e-05,0.0,0.0,0.0,0.0,0.0,0.0,0.0,0.0,0.0,-0.000191837950809,-6.46719660062e-06,8.85444603874e-05,0.0,0.0,0.0,0.0,0.0,0.0,0.0,0.0,0.0
31271671960,1625,31272000000,honey/imu,-4.9272048674e-06,3.29022127767e-05,0.707065381475,0.707148177692,-1.0,-1.0,-1.0,-1.0,-1.0,-1.0,-1.0,-1.0,-1.0,-8.01463111667e-06,6.39841925961e-05,-3.50315187041e-05,0.0,0.0,0.0,0.0,0.0,0.0,0.0,0.0,0.0,-0.000235644176266,-8.27247441595e-06,0.000117434522233,0.0,0.0,0.0,0.0,0.0,0.0,0.0,0.0,0.0
31291784430,1626,31288000000,honey/imu,-5.33043384454e-06,3.32681861737e-05,0.707065192869,0.707148366255,-1.0,-1.0,-1.0,-1.0,-1.0,-1.0,-1.0,-1.0,-1.0,-5.79109562998e-06,6.38175063876e-05,-3.64304024226e-05,0.0,0.0,0.0,0.0,0.0,0.0,0.0,0.0,0.0,-0.000178996070313,-6.34649694475e-07,0.000113360804023,0.0,0.0,0.0,0.0,0.0,0.0,0.0,0.0,0.0
31302055000,1627,31304000000,honey/imu,-5.74331970558e-06,3.36184946784e-05,0.707064989753,0.707148569327,-1.0,-1.0,-1.0,-1.0,-1.0,-1.0,-1.0,-1.0,-1.0,-7.71458303572e-06,6.32807069727e-05,-3.92429548463e-05,0.0,0.0,0.0,0.0,0.0,0.0,0.0,0.0,0.0,-0.000270274139105,5.96190980558e-06,0.000248182325712,0.0,0.0,0.0,0.0,0.0,0.0,0.0,0.0,0.0
31322182349,1628,31320000000,honey/imu,-6.13393132016e-06,3.39835614225e-05,0.707064772289,0.707148786746,-1.0,-1.0,-1.0,-1.0,-1.0,-1.0,-1.0,-1.0,-1.0,-5.14835255105e-06,6.28210932982e-05,-4.16005474082e-05,0.0,0.0,0.0,0.0,0.0,0.0,0.0,0.0,0.0,-0.000131281210144,5.02972506196e-05,0.000356972694059,0.0,0.0,0.0,0.0,0.0,0.0,0.0,0.0,0.0
31342299325,1629,31336000000,honey/imu,-6.54938655335e-06,3.43234738903e-05,0.707064541135,0.707149017852,-1.0,-1.0,-1.0,-1.0,-1.0,-1.0,-1.0,-1.0,-1.0,-1.1704974151e-05,6.40573128676e-05,-4.33148827117e-05,0.0,0.0,0.0,0.0,0.0,0.0,0.0,0.0,0.0,0.000499185336829,0.000239890625845,0.000904114222696,0.0,0.0,0.0,0.0,0.0,0.0,0.0,0.0,0.0
31352353235,1630,31352000000,honey/imu,-6.95779079487e-06,3.47165927596e-05,0.70706431011,0.707149248826,-1.0,-1.0,-1.0,-1.0,-1.0,-1.0,-1.0,-1.0,-1.0,-5.45433533535e-06,7.38540639652e-05,-3.95858562566e-05,0.0,0.0,0.0,0.0,0.0,0.0,0.0,0.0,0.0,0.00340238226483,0.000415516748014,-0.000820931852381,0.0,0.0,0.0,0.0,0.0,0.0,0.0,0.0,0.0
31372469014,1631,31368000000,honey/imu,-7.32931866609e-06,3.51214104468e-05,0.707064055363,0.707149503518,-1.0,-1.0,-1.0,-1.0,-1.0,-1.0,-1.0,-1.0,-1.0,-2.95768177176e-06,7.19188715123e-05,-4.34788446907e-05,0.0,0.0,0.0,0.0,0.0,0.0,0.0,0.0,0.0,-0.000388849428643,-0.000222493464852,-0.000754714364846,0.0,0.0,0.0,0.0,0.0,0.0,0.0,0.0,0.0
31382566701,1632,31384000000,honey/imu,-7.69701937694e-06,3.54934696563e-05,0.707063774268,0.707149784557,-1.0,-1.0,-1.0,-1.0,-1.0,-1.0,-1.0,-1.0,-1.0,-2.17385029043e-06,6.86363355591e-05,-4.81439752714e-05,0.0,0.0,0.0,0.0,0.0,0.0,0.0,0.0,0.0,-0.000805365911962,-0.000226205142273,-0.000365658990789,0.0,0.0,0.0,0.0,0.0,0.0,0.0,0.0,0.0
31402711072,1633,31400000000,honey/imu,-8.03716126805e-06,3.58646907432e-05,0.70706347302,0.707150085746,-1.0,-1.0,-1.0,-1.0,-1.0,-1.0,-1.0,-1.0,-1.0,-8.8795278082e-07,6.60070687221e-05,-5.15922331181e-05,0.0,0.0,0.0,0.0,0.0,0.0,0.0,0.0,0.0,-0.000612087701524,-0.000159452560151,-0.000212370927759,0.0,0.0,0.0,0.0,0.0,0.0,0.0,0.0,0.0
31423052607,1634,31424000000,honey/imu,-8.5270135566e-06,3.65033781456e-05,0.707063027369,0.707150531303,-1.0,-1.0,-1.0,-1.0,-1.0,-1.0,-1.0,-1.0,-1.0,7.24982015822e-06,7.02789642016e-05,-5.06683654783e-05,0.0,0.0,0.0,0.0,0.0,0.0,0.0,0.0,0.0,0.00108304549536,-0.000223522462169,-0.00156032282666,0.0,0.0,0.0,0.0,0.0,0.0,0.0,0.0,0.0
31433149860,1635,31432000000,honey/imu,-8.71590610895e-06,3.66782902059e-05,0.707062873418,0.707150685224,-1.0,-1.0,-1.0,-1.0,-1.0,-1.0,-1.0,-1.0,-1.0,-2.47367141104e-06,6.43109476129e-05,-5.44257529881e-05,0.0,0.0,0.0,0.0,0.0,0.0,0.0,0.0,0.0,-0.00390576618551,0.000636832149716,0.00483521061109,0.0,0.0,0.0,0.0,0.0,0.0,0.0,0.0,0.0
31453411983,1636,31448000000,honey/imu,-9.06783762641e-06,3.70898345209e-05,0.707062580768,0.707150977812,-1.0,-1.0,-1.0,-1.0,-1.0,-1.0,-1.0,-1.0,-1.0,8.31265207724e-07,6.42346919411e-05,-5.37528382418e-05,0.0,0.0,0.0,0.0,0.0,0.0,0.0,0.0,0.0,5.29519542664e-06,2.67959405126e-06,-8.08158695474e-06,0.0,0.0,0.0,0.0,0.0,0.0,0.0,0.0,0.0
31463513174,1637,31472000000,honey/imu,-9.58243780909e-06,3.77390884654e-05,0.707062146053,0.707151412431,-1.0,-1.0,-1.0,-1.0,-1.0,-1.0,-1.0,-1.0,-1.0,7.50724555118e-06,7.09081959363e-05,-5.00358928494e-05,0.0,0.0,0.0,0.0,0.0,0.0,0.0,0.0,0.0,0.00130880975661,-0.000202344601885,-0.00128581662849,0.0,0.0,0.0,0.0,0.0,0.0,0.0,0.0,0.0
31483763884,1638,31480000000,honey/imu,-9.76514503773e-06,3.79180171921e-05,0.707061989722,0.70715156873,-1.0,-1.0,-1.0,-1.0,-1.0,-1.0,-1.0,-1.0,-1.0,-6.70136947055e-07,6.39276666106e-05,-5.52670058819e-05,0.0,0.0,0.0,0.0,0.0,0.0,0.0,0.0,0.0,-0.00490535520211,0.000604933084132,0.00428113735922,0.0,0.0,0.0,0.0,0.0,0.0,0.0,0.0,0.0
31503838235,1639,31496000000,honey/imu,-1.01112291022e-05,3.8333296577e-05,0.707061682081,0.707151876304,-1.0,-1.0,-1.0,-1.0,-1.0,-1.0,-1.0,-1.0,-1.0,2.56344231457e-06,6.34861479917e-05,-5.73863583297e-05,0.0,0.0,0.0,0.0,0.0,0.0,0.0,0.0,0.0,-0.000581208983424,7.07393823372e-06,0.000293493516956,0.0,0.0,0.0,0.0,0.0,0.0,0.0,0.0,0.0
31513871015,1640,31512000000,honey/imu,-1.04445680296e-05,3.87591741269e-05,0.707061361826,0.70715219649,-1.0,-1.0,-1.0,-1.0,-1.0,-1.0,-1.0,-1.0,-1.0,3.94954586594e-06,6.34835562366e-05,-5.95801126959e-05,0.0,0.0,0.0,0.0,0.0,0.0,0.0,0.0,0.0,-0.000542171140919,0.000120837450883,0.000579220105761,0.0,0.0,0.0,0.0,0.0,0.0,0.0,0.0,0.0
31534179724,1641,31528000000,honey/imu,-1.08299921171e-05,3.91629216589e-05,0.70706103736,0.707152520887,-1.0,-1.0,-1.0,-1.0,-1.0,-1.0,-1.0,-1.0,-1.0,-5.32368496245e-06,6.93676094633e-05,-5.83154182429e-05,0.0,0.0,0.0,0.0,0.0,0.0,0.0,0.0,0.0,0.00133081467183,0.00064206184169,0.00108273296472,0.0,0.0,0.0,0.0,0.0,0.0,0.0,0.0,0.0
31544280893,1642,31544000000,honey/imu,-1.12002237e-05,3.96203670691e-05,0.707060712381,0.707152845792,-1.0,-1.0,-1.0,-1.0,-1.0,-1.0,-1.0,-1.0,-1.0,1.97594773539e-06,7.56811287357e-05,-5.63622959424e-05,0.0,0.0,0.0,0.0,0.0,0.0,0.0,0.0,0.0,0.00170107527585,5.55841345938e-05,-0.000726638078528,0.0,0.0,0.0,0.0,0.0,0.0,0.0,0.0,0.0
31564447031,1643,31560000000,honey/imu,-1.15446454944e-05,4.01060776089e-05,0.707060376072,0.707153182024,-1.0,-1.0,-1.0,-1.0,-1.0,-1.0,-1.0,-1.0,-1.0,5.32549401798e-06,7.63602112915e-05,-5.79705191401e-05,0.0,0.0,0.0,0.0,0.0,0.0,0.0,0.0,0.0,-2.98261224947e-05,-0.000197176371492,-0.00053323629334,0.0,0.0,0.0,0.0,0.0,0.0,0.0,0.0,0.0
31574534663,1644,31576000000,honey/imu,-1.19130367788e-05,4.05628008774e-05,0.707060033956,0.707153524063,-1.0,-1.0,-1.0,-1.0,-1.0,-1.0,-1.0,-1.0,-1.0,2.6411220848e-06,7.59668901918e-05,-5.85691729997e-05,0.0,0.0,0.0,0.0,0.0,0.0,0.0,0.0,0.0,-0.000289432756185,-0.000177664337583,-0.000328431448972,0.0,0.0,0.0,0.0,0.0,0.0,0.0,0.0,0.0
31594688285,1645,31592000000,honey/imu,-1.2251578982e-05,4.1045509164e-05,0.707059693172,0.707153864769,-1.0,-1.0,-1.0,-1.0,-1.0,-1.0,-1.0,-1.0,-1.0,6.94545575876e-06,7.54754170335e-05,-5.81190826062e-05,0.0,0.0,0.0,0.0,0.0,0.0,0.0,0.0,0.0,-0.000239752396937,-0.000119148363032,-0.000182210173552,0.0,0.0,0.0,0.0,0.0,0.0,0.0,0.0,0.0
31614853061,1646,31608000000,honey/imu,-1.26097056939e-05,4.15044985027e-05,0.707059361003,0.707154196859,-1.0,-1.0,-1.0,-1.0,-1.0,-1.0,-1.0,-1.0,-1.0,2.73785086229e-06,7.48590067932e-05,-5.64790566737e-05,0.0,0.0,0.0,0.0,0.0,0.0,0.0,0.0,0.0,-0.000239497191914,-0.000114868887631,-0.000154984041801,0.0,0.0,0.0,0.0,0.0,0.0,0.0,0.0,0.0
31625101484,1647,31616000000,honey/imu,-1.29445078522e-05,4.19847324723e-05,0.707059047313,0.707154510473,-1.0,-1.0,-1.0,-1.0,-1.0,-1.0,-1.0,-1.0,-1.0,1.966207489e-05,6.98910009506e-05,-5.78415684015e-05,0.0,0.0,0.0,0.0,0.0,0.0,0.0,0.0,0.0,-0.00332305044371,-0.00254071058524,-0.00502165007398,0.0,0.0,0.0,0.0,0.0,0.0,0.0,0.0,0.0
31625101484,1648,31640000000,honey/imu,-1.3276900156e-05,4.24820998623e-05,0.70705875873,0.707154798981,-1.0,-1.0,-1.0,-1.0,-1.0,-1.0,-1.0,-1.0,-1.0,5.44524909278e-06,7.37490444688e-05,-4.98802195906e-05,0.0,0.0,0.0,0.0,0.0,0.0,0.0,0.0,0.0,0.000797203982638,0.000693206245076,0.00147462488068,0.0,0.0,0.0,0.0,0.0,0.0,0.0,0.0,0.0
31655495295,1649,31664000000,honey/imu,-1.38820692607e-05,4.31843291874e-05,0.707058381075,0.707155176531,-1.0,-1.0,-1.0,-1.0,-1.0,-1.0,-1.0,-1.0,-1.0,7.75375002891e-06,8.00519881544e-05,-4.11484287046e-05,0.0,0.0,0.0,0.0,0.0,0.0,0.0,0.0,0.0,0.00134337791553,4.29324063343e-05,-0.00126335944965,0.0,0.0,0.0,0.0,0.0,0.0,0.0,0.0,0.0
31675608896,1650,31672000000,honey/imu,-1.40839529932e-05,4.33933614142e-05,0.707058254107,0.707155303465,-1.0,-1.0,-1.0,-1.0,-1.0,-1.0,-1.0,-1.0,-1.0,1.26052663797e-06,7.26395218251e-05,-4.48852992469e-05,0.0,0.0,0.0,0.0,0.0,0.0,0.0,0.0,0.0,-0.00495845783839,-0.000321346242372,0.00403711853397,0.0,0.0,0.0,0.0,0.0,0.0,0.0,0.0,0.0
31695729813,1651,31688000000,honey/imu,-1.44800724606e-05,4.38564617311e-05,0.707058023312,0.707155534191,-1.0,-1.0,-1.0,-1.0,-1.0,-1.0,-1.0,-1.0,-1.0,3.59280277856e-06,7.18513505828e-05,-4.28916000391e-05,0.0,0.0,0.0,0.0,0.0,0.0,0.0,0.0,0.0,-0.000303015042518,-5.47231638408e-05,0.000101179129845,0.0,0.0,0.0,0.0,0.0,0.0,0.0,0.0,0.0
31705783628,1652,31704000000,honey/imu,-1.4864075732e-05,4.43231852349e-05,0.707057805603,0.707155751833,-1.0,-1.0,-1.0,-1.0,-1.0,-1.0,-1.0,-1.0,-1.0,5.19863214091e-06,7.09693029088e-05,-4.05549331928e-05,0.0,0.0,0.0,0.0,0.0,0.0,0.0,0.0,0.0,-0.000410944136789,-6.53670675592e-05,0.000168323667202,0.0,0.0,0.0,0.0,0.0,0.0,0.0,0.0,0.0
31726096634,1653,31720000000,honey/imu,-1.52727677336e-05,4.47560937403e-05,0.707057600235,0.707155957137,-1.0,-1.0,-1.0,-1.0,-1.0,-1.0,-1.0,-1.0,-1.0,2.85752337992e-07,7.01000190001e-05,-3.84813411712e-05,0.0,0.0,0.0,0.0,0.0,0.0,0.0,0.0,0.0,-0.000330774779828,-3.09770935757e-05,0.000194702938758,0.0,0.0,0.0,0.0,0.0,0.0,0.0,0.0,0.0
31736155987,1654,31736000000,honey/imu,-1.56701212852e-05,4.51917853463e-05,0.707057407203,0.707156150105,-1.0,-1.0,-1.0,-1.0,-1.0,-1.0,-1.0,-1.0,-1.0,7.95176868646e-07,6.95022884392e-05,-3.61967141943e-05,0.0,0.0,0.0,0.0,0.0,0.0,0.0,0.0,0.0,-0.000285600890653,2.58508564527e-05,0.000309858563376,0.0,0.0,0.0,0.0,0.0,0.0,0.0,0.0,0.0
31756313062,1655,31752000000,honey/imu,-1.60967461444e-05,4.55942009894e-05,0.707057232383,0.707156324865,-1.0,-1.0,-1.0,-1.0,-1.0,-1.0,-1.0,-1.0,-1.0,-6.4618185635e-06,6.97891318217e-05,-3.23107999057e-05,0.0,0.0,0.0,0.0,0.0,0.0,0.0,0.0,0.0,-5.12751103244e-06,0.000249699183488,0.00067421196731,0.0,0.0,0.0,0.0,0.0,0.0,0.0,0.0,0.0
31776903251,1656,31768000000,honey/imu,-1.65423041662e-05,4.60055863221e-05,0.707057081874,0.707156475316,-1.0,-1.0,-1.0,-1.0,-1.0,-1.0,-1.0,-1.0,-1.0,-1.04333555137e-05,7.59765837665e-05,-2.5954006824e-05,0.0,0.0,0.0,0.0,0.0,0.0,0.0,0.0,0.0,0.00209880261997,0.000869319763622,0.000672258771844,0.0,0.0,0.0,0.0,0.0,0.0,0.0,0.0,0.0
31786960976,1657,31784000000,honey/imu,-1.69676618926e-05,4.64441024861e-05,0.707056938527,0.707156618604,-1.0,-1.0,-1.0,-1.0,-1.0,-1.0,-1.0,-1.0,-1.0,-6.0168412647e-06,7.81712349458e-05,-2.40321692675e-05,0.0,0.0,0.0,0.0,0.0,0.0,0.0,0.0,0.0,0.000870127095931,5.15728509958e-05,-0.000594211173235,0.0,0.0,0.0,0.0,0.0,0.0,0.0,0.0,0.0
31797064047,1658,31800000000,honey/imu,-1.74197545206e-05,4.68498758749e-05,0.707056790979,0.707156766094,-1.0,-1.0,-1.0,-1.0,-1.0,-1.0,-1.0,-1.0,-1.0,-1.0473449316e-05,7.80635190086e-05,-2.47530951715e-05,0.0,0.0,0.0,0.0,0.0,0.0,0.0,0.0,0.0,0.000105917760352,-7.17631857394e-05,-0.000257485715957,0.0,0.0,0.0,0.0,0.0,0.0,0.0,0.0,0.0
31817278145,1659,31816000000,honey/imu,-1.78403280123e-05,4.72830556815e-05,0.707056634723,0.707156922288,-1.0,-1.0,-1.0,-1.0,-1.0,-1.0,-1.0,-1.0,-1.0,-4.95179980785e-06,7.80233294694e-05,-2.63384681811e-05,0.0,0.0,0.0,0.0,0.0,0.0,0.0,0.0,0.0,-2.24057172495e-05,-8.93471003416e-05,-0.000219002733713,0.0,0.0,0.0,0.0,0.0,0.0,0.0,0.0,0.0
31837391819,1660,31832000000,honey/imu,-1.82419131769e-05,4.77353391078e-05,0.7070564696,0.707157087347,-1.0,-1.0,-1.0,-1.0,-1.0,-1.0,-1.0,-1.0,-1.0,-3.14858264472e-06,7.81867869278e-05,-2.77614518921e-05,0.0,0.0,0.0,0.0,0.0,0.0,0.0,0.0,0.0,-4.78710124842e-05,-5.50618038913e-05,-0.000118584473647,0.0,0.0,0.0,0.0,0.0,0.0,0.0,0.0,0.0
31847601502,1661,31848000000,honey/imu,-1.86714977564e-05,4.81572551174e-05,0.707056296245,0.707157260637,-1.0,-1.0,-1.0,-1.0,-1.0,-1.0,-1.0,-1.0,-1.0,-6.33040592982e-06,7.78008514272e-05,-2.92741140668e-05,0.0,0.0,0.0,0.0,0.0,0.0,0.0,0.0,0.0,-9.35919574499e-05,-5.83033090192e-05,-0.000111427876717,0.0,0.0,0.0,0.0,0.0,0.0,0.0,0.0,0.0
31867717305,1662,31864000000,honey/imu,-1.90466984267e-05,4.86134511919e-05,0.707056112818,0.707157443998,-1.0,-1.0,-1.0,-1.0,-1.0,-1.0,-1.0,-1.0,-1.0,2.05135740752e-06,7.57641010076e-05,-3.09943753317e-05,0.0,0.0,0.0,0.0,0.0,0.0,0.0,0.0,0.0,-0.000208621424071,-0.000140626074091,-0.000252616226161,0.0,0.0,0.0,0.0,0.0,0.0,0.0,0.0,0.0
31887832719,1663,31880000000,honey/imu,-1.93778584588e-05,4.90892861265e-05,0.707055921104,0.707157635642,-1.0,-1.0,-1.0,-1.0,-1.0,-1.0,-1.0,-1.0,-1.0,5.01345210032e-06,7.34497904396e-05,-3.2450662013e-05,0.0,0.0,0.0,0.0,0.0,0.0,0.0,0.0,0.0,-0.000218687457111,-0.000116591759077,-0.000193121608777,0.0,0.0,0.0,0.0,0.0,0.0,0.0,0.0,0.0
31897889632,1664,31896000000,honey/imu,-1.97259131218e-05,4.95306707561e-05,0.707055724668,0.707157832009,-1.0,-1.0,-1.0,-1.0,-1.0,-1.0,-1.0,-1.0,-1.0,2.24163876793e-06,7.18058787196e-05,-3.33293146921e-05,0.0,0.0,0.0,0.0,0.0,0.0,0.0,0.0,0.0,-0.000132343285501,-6.21845920517e-05,-0.000102024479652,0.0,0.0,0.0,0.0,0.0,0.0,0.0,0.0,0.0
31918031252,1665,31912000000,honey/imu,-2.003249086e-05,5.00022724262e-05,0.707055522156,0.70715803445,-1.0,-1.0,-1.0,-1.0,-1.0,-1.0,-1.0,-1.0,-1.0,8.15775901605e-06,7.06900287104e-05,-3.46891384633e-05,0.0,0.0,0.0,0.0,0.0,0.0,0.0,0.0,0.0,-0.000144984423438,-7.49608806886e-05,-0.000130265483112,0.0,0.0,0.0,0.0,0.0,0.0,0.0,0.0,0.0
31928336234,1666,31928000000,honey/imu,-2.03118369254e-05,5.049681956e-05,0.707055314394,0.707158242139,-1.0,-1.0,-1.0,-1.0,-1.0,-1.0,-1.0,-1.0,-1.0,1.08684668635e-05,6.99792675264e-05,-3.58573663421e-05,0.0,0.0,0.0,0.0,0.0,0.0,0.0,0.0,0.0,-0.00010385639452,-5.38402064103e-05,-9.45604469897e-05,0.0,0.0,0.0,0.0,0.0,0.0,0.0,0.0,0.0
31948555715,1667,31944000000,honey/imu,-2.06295297951e-05,5.09556579981e-05,0.707055104919,0.707158451541,-1.0,-1.0,-1.0,-1.0,-1.0,-1.0,-1.0,-1.0,-1.0,4.89691109305e-06,6.98343442229e-05,-3.63509117263e-05,0.0,0.0,0.0,0.0,0.0,0.0,0.0,0.0,0.0,-4.39675953518e-05,-1.25790978103e-05,-2.73709103771e-05,0.0,0.0,0.0,0.0,0.0,0.0,0.0,0.0,0.0
31958784318,1668,31960000000,honey/imu,-2.10457983368e-05,5.17080137871e-05,0.707054793688,0.707158762659,-1.0,-1.0,-1.0,-1.0,-1.0,-1.0,-1.0,-1.0,-1.0,8.04661682322e-06,7.00516407721e-05,-3.59459670496e-05,0.0,0.0,0.0,0.0,0.0,0.0,0.0,0.0,0.0,-7.93771171109e-06,-2.95973644253e-06,-1.51374729824e-05,0.0,0.0,0.0,0.0,0.0,0.0,0.0,0.0,0.0
31978929730,1669,31976000000,honey/imu,-2.12118945068e-05,5.19379158667e-05,0.707054693242,0.707158863069,-1.0,-1.0,-1.0,-1.0,-1.0,-1.0,-1.0,-1.0,-1.0,1.1276078119e-05,7.00033213618e-05,-3.55075467377e-05,0.0,0.0,0.0,0.0,0.0,0.0,0.0,0.0,0.0,-3.39892948821e-07,-1.18642759458e-06,-9.75101639219e-06,0.0,0.0,0.0,0.0,0.0,0.0,0.0,0.0,0.0
31999080385,1670,31992000000,honey/imu,-2.1487055815e-05,5.24449242531e-05,0.707054491099,0.707159065137,-1.0,-1.0,-1.0,-1.0,-1.0,-1.0,-1.0,-1.0,-1.0,1.05150764209e-05,6.993267262e-05,-3.51104368571e-05,0.0,0.0,0.0,0.0,0.0,0.0,0.0,0.0,0.0,-1.19945540153e-07,3.43078236991e-06,8.43964476514e-07,0.0,0.0,0.0,0.0,0.0,0.0,0.0,0.0,0.0
32009159524,1671,32008000000,honey/imu,-2.18055751841e-05,5.29053360831e-05,0.707054285731,0.70715927043,-1.0,-1.0,-1.0,-1.0,-1.0,-1.0,-1.0,-1.0,-1.0,4.81298613244e-06,6.96413855584e-05,-3.59564115958e-05,0.0,0.0,0.0,0.0,0.0,0.0,0.0,0.0,0.0,-6.38468862268e-05,-2.8405343824e-05,-4.19568925859e-05,0.0,0.0,0.0,0.0,0.0,0.0,0.0,0.0,0.0
32029337443,1672,32024000000,honey/imu,-2.2093511923e-05,5.33962821607e-05,0.707054072562,0.707159483521,-1.0,-1.0,-1.0,-1.0,-1.0,-1.0,-1.0,-1.0,-1.0,1.03630271462e-05,6.90123177075e-05,-3.79876091603e-05,0.0,0.0,0.0,0.0,0.0,0.0,0.0,0.0,0.0,-0.000146320225058,-9.35985592859e-05,-0.000139148869209,0.0,0.0,0.0,0.0,0.0,0.0,0.0,0.0,0.0
32039457367,1673,32040000000,honey/imu,-2.23670200672e-05,5.39239754875e-05,0.707053855371,0.707159700632,-1.0,-1.0,-1.0,-1.0,-1.0,-1.0,-1.0,-1.0,-1.0,1.58734789779e-05,6.86845856159e-05,-4.03266074944e-05,0.0,0.0,0.0,0.0,0.0,0.0,0.0,0.0,0.0,-0.000219538628854,-6.83440073078e-05,-7.91597560331e-05,0.0,0.0,0.0,0.0,0.0,0.0,0.0,0.0,0.0
32059588686,1674,32056000000,honey/imu,-2.26753606889e-05,5.44365263652e-05,0.707053632816,0.707159923103,-1.0,-1.0,-1.0,-1.0,-1.0,-1.0,-1.0,-1.0,-1.0,1.5856676308e-05,6.82293302893e-05,-4.27414232918e-05,0.0,0.0,0.0,0.0,0.0,0.0,0.0,0.0,0.0,-0.000469327157616,-3.91286399829e-05,1.64547457863e-05,0.0,0.0,0.0,0.0,0.0,0.0,0.0,0.0,0.0
32069650046,1675,32072000000,honey/imu,-2.29681182081e-05,5.49646243314e-05,0.707053399702,0.707160156132,-1.0,-1.0,-1.0,-1.0,-1.0,-1.0,-1.0,-1.0,-1.0,1.96389925693e-05,6.79361530389e-05,-4.47108719755e-05,0.0,0.0,0.0,0.0,0.0,0.0,0.0,0.0,0.0,-0.00056859535775,-4.04322898107e-05,2.77348372928e-05,0.0,0.0,0.0,0.0,0.0,0.0,0.0,0.0,0.0
32099820509,1676,32088000000,honey/imu,-2.32581562367e-05,5.54956392924e-05,0.707053156056,0.707160399691,-1.0,-1.0,-1.0,-1.0,-1.0,-1.0,-1.0,-1.0,-1.0,2.11445145615e-05,6.80273720246e-05,-4.65446623584e-05,0.0,0.0,0.0,0.0,0.0,0.0,0.0,0.0,0.0,-0.000575975719947,6.8684596844e-06,0.00010278667911,0.0,0.0,0.0,0.0,0.0,0.0,0.0,0.0,0.0
32119943392,1677,32104000000,honey/imu,-2.35452689115e-05,5.60319330739e-05,0.707052904349,0.707160651308,-1.0,-1.0,-1.0,-1.0,-1.0,-1.0,-1.0,-1.0,-1.0,2.09208908946e-05,6.83982838131e-05,-4.77493620794e-05,0.0,0.0,0.0,0.0,0.0,0.0,0.0,0.0,0.0,-0.000474964378332,0.000168745828664,0.000339136903473,0.0,0.0,0.0,0.0,0.0,0.0,0.0,0.0,0.0
32119943392,1678,32120000000,honey/imu,-2.38339959867e-05,5.65847299263e-05,0.707052652099,0.707160903465,-1.0,-1.0,-1.0,-1.0,-1.0,-1.0,-1.0,-1.0,-1.0,1.82565231673e-05,7.13807906043e-05,-4.68959288058e-05,0.0,0.0,0.0,0.0,0.0,0.0,0.0,0.0,0.0,0.000380118357782,0.000740922702369,0.00106803893181,0.0,0.0,0.0,0.0,0.0,0.0,0.0,0.0,0.0
32150112477,1679,32136000000,honey/imu,-2.41758055825e-05,5.71446395441e-05,0.707052412622,0.707161142849,-1.0,-1.0,-1.0,-1.0,-1.0,-1.0,-1.0,-1.0,-1.0,1.23117536668e-05,8.12463818376e-05,-4.16673703246e-05,0.0,0.0,0.0,0.0,0.0,0.0,0.0,0.0,0.0,0.00264343895737,0.000509101860487,0.000320318105083,0.0,0.0,0.0,0.0,0.0,0.0,0.0,0.0,0.0
32160202347,1680,32160000000,honey/imu,-2.45950711436e-05,5.81000707445e-05,0.707052048419,0.707161506903,-1.0,-1.0,-1.0,-1.0,-1.0,-1.0,-1.0,-1.0,-1.0,4.02235712196e-05,7.98582437299e-05,-4.4100751745e-05,0.0,0.0,0.0,0.0,0.0,0.0,0.0,0.0,0.0,-0.000834744274324,-0.00135228304608,-0.00192605383179,0.0,0.0,0.0,0.0,0.0,0.0,0.0,0.0,0.0
32170291114,1681,32168000000,honey/imu,-2.47712701936e-05,5.84041314099e-05,0.707051932137,0.707161623136,-1.0,-1.0,-1.0,-1.0,-1.0,-1.0,-1.0,-1.0,-1.0,2.25987863481e-05,8.48995011086e-05,-4.11037743745e-05,0.0,0.0,0.0,0.0,0.0,0.0,0.0,0.0,0.0,0.00293431165968,0.00300014669505,0.00407238131394,0.0,0.0,0.0,0.0,0.0,0.0,0.0,0.0,0.0
32190405532,1682,32184000000,honey/imu,-2.5093903904e-05,5.90197277023e-05,0.707051688587,0.707161866586,-1.0,-1.0,-1.0,-1.0,-1.0,-1.0,-1.0,-1.0,-1.0,1.95623121079e-05,8.54845034144e-05,-4.16023031225e-05,0.0,0.0,0.0,0.0,0.0,0.0,0.0,0.0,0.0,-0.000146340254193,-0.000152789005038,-0.000210804974257,0.0,0.0,0.0,0.0,0.0,0.0,0.0,0.0,0.0
32190405532,1683,32200000000,honey/imu,-2.53819315216e-05,5.96720123673e-05,0.707051439214,0.707162115855,-1.0,-1.0,-1.0,-1.0,-1.0,-1.0,-1.0,-1.0,-1.0,2.58166482061e-05,8.54962199728e-05,-4.28554170786e-05,0.0,0.0,0.0,0.0,0.0,0.0,0.0,0.0,0.0,-0.000200290514965,-0.000162413482607,-0.000221549864807,0.0,0.0,0.0,0.0,0.0,0.0,0.0,0.0,0.0
32210471137,1684,32216000000,honey/imu,-2.5641116863e-05,6.03506584754e-05,0.7070511788,0.707162376161,-1.0,-1.0,-1.0,-1.0,-1.0,-1.0,-1.0,-1.0,-1.0,2.88107666747e-05,8.49381281276e-05,-4.51482240758e-05,0.0,0.0,0.0,0.0,0.0,0.0,0.0,0.0,0.0,-0.000251062198511,-0.000178785336437,-0.00023360061878,0.0,0.0,0.0,0.0,0.0,0.0,0.0,0.0,0.0
32230584549,1685,32232000000,honey/imu,-2.59290007347e-05,6.10008851441e-05,0.707050917704,0.70716263715,-1.0,-1.0,-1.0,-1.0,-1.0,-1.0,-1.0,-1.0,-1.0,2.493166984e-05,8.43724320264e-05,-4.50773154384e-05,0.0,0.0,0.0,0.0,0.0,0.0,0.0,0.0,0.0,-0.000270090952357,-0.000199308197242,-0.000241264090252,0.0,0.0,0.0,0.0,0.0,0.0,0.0,0.0,0.0
32250693510,1686,32248000000,honey/imu,-2.61965511614e-05,6.16904420904e-05,0.707050675196,0.70716287955,-1.0,-1.0,-1.0,-1.0,-1.0,-1.0,-1.0,-1.0,-1.0,2.94098608557e-05,8.3847526811e-05,-4.26972283516e-05,0.0,0.0,0.0,0.0,0.0,0.0,0.0,0.0,0.0,-0.000219684555824,-0.000171873474474,-0.000193198404288,0.0,0.0,0.0,0.0,0.0,0.0,0.0,0.0,0.0
32270806059,1687,32264000000,honey/imu,-2.64962727624e-05,6.23778852568e-05,0.707050459633,0.707163095007,-1.0,-1.0,-1.0,-1.0,-1.0,-1.0,-1.0,-1.0,-1.0,3.23033312303e-05,8.25170836988e-05,-4.01095615953e-05,0.0,0.0,0.0,0.0,0.0,0.0,0.0,0.0,0.0,-0.000461654220206,-0.000103566375539,-5.93465778295e-06,0.0,0.0,0.0,0.0,0.0,0.0,0.0,0.0,0.0
32291881612,1688,32280000000,honey/imu,-2.67997853778e-05,6.3047055172e-05,0.707050264545,0.707163289993,-1.0,-1.0,-1.0,-1.0,-1.0,-1.0,-1.0,-1.0,-1.0,3.07558804245e-05,8.10101468924e-05,-3.66568243413e-05,0.0,0.0,0.0,0.0,0.0,0.0,0.0,0.0,0.0,-0.00038936957223,-8.71894659745e-05,1.10564569542e-07,0.0,0.0,0.0,0.0,0.0,0.0,0.0,0.0,0.0
32301938598,1689,32296000000,honey/imu,-2.71106732219e-05,6.36966440716e-05,0.70705008328,0.707163471159,-1.0,-1.0,-1.0,-1.0,-1.0,-1.0,-1.0,-1.0,-1.0,3.03523960445e-05,8.00699384688e-05,-3.45916598754e-05,0.0,0.0,0.0,0.0,0.0,0.0,0.0,0.0,0.0,-0.000205420712491,-4.18396596525e-05,2.56927645085e-06,0.0,0.0,0.0,0.0,0.0,0.0,0.0,0.0,0.0
32311995146,1690,32312000000,honey/imu,-2.74207743976e-05,6.43424434059e-05,0.707049905995,0.707163648345,-1.0,-1.0,-1.0,-1.0,-1.0,-1.0,-1.0,-1.0,-1.0,3.03165857002e-05,7.98574916158e-05,-3.43143436889e-05,0.0,0.0,0.0,0.0,0.0,0.0,0.0,0.0,0.0,-4.72523449198e-05,-7.16001952985e-06,8.5727785709e-07,0.0,0.0,0.0,0.0,0.0,0.0,0.0,0.0,0.0
32332146884,1691,32328000000,honey/imu,-2.77287584371e-05,6.49860086725e-05,0.707049731062,0.707163823179,-1.0,-1.0,-1.0,-1.0,-1.0,-1.0,-1.0,-1.0,-1.0,3.02891428783e-05,7.93978233202e-05,-3.38486157708e-05,0.0,0.0,0.0,0.0,0.0,0.0,0.0,0.0,0.0,-8.97815448432e-05,-1.42805822237e-05,2.52250787716e-06,0.0,0.0,0.0,0.0,0.0,0.0,0.0,0.0,0.0
32342204346,1692,32336000000,honey/imu,-2.8200733091e-05,6.59571525839e-05,0.707049481179,0.707164072913,-1.0,-1.0,-1.0,-1.0,-1.0,-1.0,-1.0,-1.0,-1.0,2.89780304686e-05,8.83761618266e-05,-2.76605600674e-05,0.0,0.0,0.0,0.0,0.0,0.0,0.0,0.0,0.0,0.00596707343273,0.00101175814371,-0.000427979658372,0.0,0.0,0.0,0.0,0.0,0.0,0.0,0.0,0.0
32362356024,1693,32360000000,honey/imu,-2.83366168546e-05,6.62629841849e-05,0.707049388986,0.707164165057,-1.0,-1.0,-1.0,-1.0,-1.0,-1.0,-1.0,-1.0,-1.0,3.00386596028e-05,7.80865468869e-05,-3.25864124365e-05,0.0,0.0,0.0,0.0,0.0,0.0,0.0,0.0,0.0,-0.00218317617173,-0.00036242307469,0.000166014382317,0.0,0.0,0.0,0.0,0.0,0.0,0.0,0.0,0.0
32382647663,1694,32376000000,honey/imu,-2.86343081518e-05,6.68924081171e-05,0.707049226732,0.707164327213,-1.0,-1.0,-1.0,-1.0,-1.0,-1.0,-1.0,-1.0,-1.0,2.97385292776e-05,7.71207474951e-05,-3.14476164583e-05,0.0,0.0,0.0,0.0,0.0,0.0,0.0,0.0,0.0,-0.000195349213461,-1.10574747687e-05,5.82725892154e-05,0.0,0.0,0.0,0.0,0.0,0.0,0.0,0.0,0.0
32392901506,1695,32392000000,honey/imu,-2.89278099802e-05,6.75147544973e-05,0.707049070855,0.707164482994,-1.0,-1.0,-1.0,-1.0,-1.0,-1.0,-1.0,-1.0,-1.0,2.93290307308e-05,7.60737374693e-05,-3.02074571498e-05,0.0,0.0,0.0,0.0,0.0,0.0,0.0,0.0,0.0,-0.000228374633898,-1.50433418141e-05,8.06781558051e-05,0.0,0.0,0.0,0.0,0.0,0.0,0.0,0.0,0.0
32413089957,1696,32408000000,honey/imu,-2.92182604183e-05,6.81274799777e-05,0.707048923574,0.70716463018,-1.0,-1.0,-1.0,-1.0,-1.0,-1.0,-1.0,-1.0,-1.0,2.83542252681e-05,7.50227628571e-05,-2.86561555511e-05,0.0,0.0,0.0,0.0,0.0,0.0,0.0,0.0,0.0,-0.000202502315974,7.94650915537e-05,0.000227055785026,0.0,0.0,0.0,0.0,0.0,0.0,0.0,0.0,0.0
32423145158,1697,32424000000,honey/imu,-2.951424584e-05,6.87236408843e-05,0.707048788045,0.707164765617,-1.0,-1.0,-1.0,-1.0,-1.0,-1.0,-1.0,-1.0,-1.0,2.46088802131e-05,7.42956148112e-05,-2.62900294086e-05,0.0,0.0,0.0,0.0,0.0,0.0,0.0,0.0,0.0,-8.51111896358e-05,0.000263566865527,0.000523925900265,0.0,0.0,0.0,0.0,0.0,0.0,0.0,0.0,0.0
32443435515,1698,32440000000,honey/imu,-2.98221204922e-05,6.93132344481e-05,0.70704867425,0.707164879322,-1.0,-1.0,-1.0,-1.0,-1.0,-1.0,-1.0,-1.0,-1.0,1.8256494668e-05,7.67513591279e-05,-2.09346162744e-05,0.0,0.0,0.0,0.0,0.0,0.0,0.0,0.0,0.0,0.00106254843718,0.000860204649879,0.00117298859814,0.0,0.0,0.0,0.0,0.0,0.0,0.0,0.0,0.0
32463757165,1699,32456000000,honey/imu,-3.01288017053e-05,6.99159982981e-05,0.707048582854,0.707164970632,-1.0,-1.0,-1.0,-1.0,-1.0,-1.0,-1.0,-1.0,-1.0,1.77097830214e-05,8.00523331801e-05,-1.55942694891e-05,0.0,0.0,0.0,0.0,0.0,0.0,0.0,0.0,0.0,0.0013463399268,0.0003446172358,8.14531818267e-05,0.0,0.0,0.0,0.0,0.0,0.0,0.0,0.0,0.0
32473786008,1700,32472000000,honey/imu,-3.04746511335e-05,7.04777141903e-05,0.707048502598,0.707165050804,-1.0,-1.0,-1.0,-1.0,-1.0,-1.0,-1.0,-1.0,-1.0,1.11993501106e-05,8.06264143074e-05,-1.35022117487e-05,0.0,0.0,0.0,0.0,0.0,0.0,0.0,0.0,0.0,0.000374345674098,-1.28545884962e-05,-0.000162613387833,0.0,0.0,0.0,0.0,0.0,0.0,0.0,0.0,0.0
32494061064,1701,32488000000,honey/imu,-3.0794379491e-05,7.10603993714e-05,0.707048430223,0.707165123094,-1.0,-1.0,-1.0,-1.0,-1.0,-1.0,-1.0,-1.0,-1.0,1.55223237918e-05,8.0643003796e-05,-1.18069998111e-05,0.0,0.0,0.0,0.0,0.0,0.0,0.0,0.0,0.0,0.0002121938414,-8.77547999134e-05,-0.000230374920508,0.0,0.0,0.0,0.0,0.0,0.0,0.0,0.0,0.0
32494061064,1702,32504000000,honey/imu,-3.1085935999e-05,7.16596372549e-05,0.707048368296,0.707165184938,-1.0,-1.0,-1.0,-1.0,-1.0,-1.0,-1.0,-1.0,-1.0,1.93327769682e-05,7.99025137099e-05,-9.46902753475e-06,0.0,0.0,0.0,0.0,0.0,0.0,0.0,0.0,0.0,7.82756158657e-05,-0.000162206434252,-0.000332563189069,0.0,0.0,0.0,0.0,0.0,0.0,0.0,0.0,0.0
32524489122,1703,32520000000,honey/imu,-3.140371822e-05,7.22173644279e-05,0.707048323713,0.707165229443,-1.0,-1.0,-1.0,-1.0,-1.0,-1.0,-1.0,-1.0,-1.0,1.40467323576e-05,7.87999267839e-05,-5.89075854623e-06,0.0,0.0,0.0,0.0,0.0,0.0,0.0,0.0,0.0,-0.000105993428644,-0.000227619772486,-0.000391731725481,0.0,0.0,0.0,0.0,0.0,0.0,0.0,0.0,0.0
32534685160,1704,32536000000,honey/imu,-3.16888265444e-05,7.27960231572e-05,0.70704829693,0.70716525615,-1.0,-1.0,-1.0,-1.0,-1.0,-1.0,-1.0,-1.0,-1.0,1.86010495783e-05,7.7734510387e-05,-2.88427732022e-06,0.0,0.0,0.0,0.0,0.0,0.0,0.0,0.0,0.0,-0.000185626195459,-0.000201760988194,-0.00031903579247,0.0,0.0,0.0,0.0,0.0,0.0,0.0,0.0,0.0
32555042809,1705,32552000000,honey/imu,-3.20870192857e-05,7.36848690676e-05,0.707048295233,0.707165257736,-1.0,-1.0,-1.0,-1.0,-1.0,-1.0,-1.0,-1.0,-1.0,1.96429307817e-05,7.70638041675e-05,5.28834810664e-07,0.0,0.0,0.0,0.0,0.0,0.0,0.0,0.0,0.0,-0.000212084844119,-0.000189670185448,-0.000287165472591,0.0,0.0,0.0,0.0,0.0,0.0,0.0,0.0,0.0
32575239471,1706,32568000000,honey/imu,-3.22646481722e-05,7.39381649767e-05,0.707048307102,0.707165245834,-1.0,-1.0,-1.0,-1.0,-1.0,-1.0,-1.0,-1.0,-1.0,1.33695517185e-05,7.61786910784e-05,4.2009771706e-06,0.0,0.0,0.0,0.0,0.0,0.0,0.0,0.0,0.0,-0.000215253984398,-0.000177935219891,-0.000259817515997,0.0,0.0,0.0,0.0,0.0,0.0,0.0,0.0,0.0
32585313206,1707,32584000000,honey/imu,-3.25752757873e-05,7.4510486426e-05,0.70704835056,0.707165202309,-1.0,-1.0,-1.0,-1.0,-1.0,-1.0,-1.0,-1.0,-1.0,1.65882543927e-05,7.53520875089e-05,6.63783506186e-06,0.0,0.0,0.0,0.0,0.0,0.0,0.0,0.0,0.0,-0.000166948399882,-6.87850988358e-05,-8.3634733241e-05,0.0,0.0,0.0,0.0,0.0,0.0,0.0,0.0,0.0
32605534545,1708,32600000000,honey/imu,-3.28928325882e-05,7.50834650391e-05,0.707048413951,0.707165138853,-1.0,-1.0,-1.0,-1.0,-1.0,-1.0,-1.0,-1.0,-1.0,1.93806142986e-05,7.43837805864e-05,9.11527184552e-06,0.0,0.0,0.0,0.0,0.0,0.0,0.0,0.0,0.0,-0.00028301582925,-4.6102196363e-05,-1.38789640499e-05,0.0,0.0,0.0,0.0,0.0,0.0,0.0,0.0,0.0
32615623254,1709,32616000000,honey/imu,-3.32034195425e-05,7.56588238462e-05,0.707048488259,0.707165064482,-1.0,-1.0,-1.0,-1.0,-1.0,-1.0,-1.0,-1.0,-1.0,2.22843289884e-05,7.36370854444e-05,1.05251633348e-05,0.0,0.0,0.0,0.0,0.0,0.0,0.0,0.0,0.0,-0.000251125956523,-3.63814683151e-05,-7.45317967256e-06,0.0,0.0,0.0,0.0,0.0,0.0,0.0,0.0,0.0
32625705620,1710,32632000000,honey/imu,-3.35312955155e-05,7.62094351484e-05,0.707048573593,0.707164979088,-1.0,-1.0,-1.0,-1.0,-1.0,-1.0,-1.0,-1.0,-1.0,1.92551507255e-05,7.28949476154e-05,1.25686590299e-05,0.0,0.0,0.0,0.0,0.0,0.0,0.0,0.0,0.0,-0.000299598975048,-3.41008556427e-05,8.17269415098e-06,0.0,0.0,0.0,0.0,0.0,0.0,0.0,0.0,0.0
32656242751,1711,32648000000,honey/imu,-3.38586811096e-05,7.67544273876e-05,0.707048667516,0.707164885105,-1.0,-1.0,-1.0,-1.0,-1.0,-1.0,-1.0,-1.0,-1.0,1.9031655864e-05,7.23914507547e-05,1.38902166815e-05,0.0,0.0,0.0,0.0,0.0,0.0,0.0,0.0,0.0,-0.000241103310072,-2.15402827427e-05,1.52010525312e-05,0.0,0.0,0.0,0.0,0.0,0.0,0.0,0.0,0.0
32666326431,1712,32672000000,honey/imu,-3.43603976851e-05,7.75757744719e-05,0.707048835378,0.707164717157,-1.0,-1.0,-1.0,-1.0,-1.0,-1.0,-1.0,-1.0,-1.0,1.86824372189e-05,8.07433608555e-05,2.28125045636e-05,0.0,0.0,0.0,0.0,0.0,0.0,0.0,0.0,0.0,0.00176399537639,9.9878455821e-05,-0.000263705199104,0.0,0.0,0.0,0.0,0.0,0.0,0.0,0.0,0.0
32686548954,1713,32680000000,honey/imu,-3.45102689679e-05,7.78289641259e-05,0.707048885106,0.707164667402,-1.0,-1.0,-1.0,-1.0,-1.0,-1.0,-1.0,-1.0,-1.0,1.82570498539e-05,7.12538142783e-05,1.75855307412e-05,0.0,0.0,0.0,0.0,0.0,0.0,0.0,0.0,0.0,-0.00632530288218,-0.000325166752867,0.000970250470838,0.0,0.0,0.0,0.0,0.0,0.0,0.0,0.0,0.0
32696619899,1714,32704000000,honey/imu,-3.50042162991e-05,7.86386019266e-05,0.707049073245,0.707164479181,-1.0,-1.0,-1.0,-1.0,-1.0,-1.0,-1.0,-1.0,-1.0,1.91144491214e-05,7.95722808774e-05,2.41382206724e-05,0.0,0.0,0.0,0.0,0.0,0.0,0.0,0.0,0.0,0.00173020748029,7.17643290942e-05,-0.000320364861855,0.0,0.0,0.0,0.0,0.0,0.0,0.0,0.0,0.0
32706684027,1715,32712000000,honey/imu,-3.51550142885e-05,7.88862190537e-05,0.707049124174,0.707164428224,-1.0,-1.0,-1.0,-1.0,-1.0,-1.0,-1.0,-1.0,-1.0,1.71081724716e-05,7.04324599586e-05,1.80103153633e-05,0.0,0.0,0.0,0.0,0.0,0.0,0.0,0.0,0.0,-0.00611722316979,5.56821019562e-05,0.00185329752743,0.0,0.0,0.0,0.0,0.0,0.0,0.0,0.0,0.0
32726843079,1716,32728000000,honey/imu,-3.54637736437e-05,7.94239481276e-05,0.707049239113,0.707164313228,-1.0,-1.0,-1.0,-1.0,-1.0,-1.0,-1.0,-1.0,-1.0,1.7343725286e-05,7.04697218445e-05,1.72146145302e-05,0.0,0.0,0.0,0.0,0.0,0.0,0.0,0.0,0.0,-2.79354958631e-05,8.17745897831e-05,0.000300080388163,0.0,0.0,0.0,0.0,0.0,0.0,0.0,0.0,0.0
32747002276,1717,32744000000,honey/imu,-3.5792676128e-05,7.99446797102e-05,0.707049348138,0.707164204145,-1.0,-1.0,-1.0,-1.0,-1.0,-1.0,-1.0,-1.0,-1.0,1.35500513177e-05,7.13706001693e-05,1.643378907e-05,0.0,0.0,0.0,0.0,0.0,0.0,0.0,0.0,0.0,0.000207414593527,0.000170431200292,0.000638403257408,0.0,0.0,0.0,0.0,0.0,0.0,0.0,0.0,0.0
32767153122,1718,32760000000,honey/imu,-3.61160269784e-05,8.04862462651e-05,0.707049455035,0.707164097189,-1.0,-1.0,-1.0,-1.0,-1.0,-1.0,-1.0,-1.0,-1.0,1.35680474729e-05,7.4245254227e-05,1.71682047522e-05,0.0,0.0,0.0,0.0,0.0,0.0,0.0,0.0,0.0,0.000878403303364,0.000281364377272,0.000773300154488,0.0,0.0,0.0,0.0,0.0,0.0,0.0,0.0,0.0
32777210815,1719,32776000000,honey/imu,-3.64314429995e-05,8.1056525463e-05,0.707049562437,0.707163989723,-1.0,-1.0,-1.0,-1.0,-1.0,-1.0,-1.0,-1.0,-1.0,1.53334965599e-05,7.81075260816e-05,1.84982133815e-05,0.0,0.0,0.0,0.0,0.0,0.0,0.0,0.0,0.0,0.00121765307454,0.000181458165192,0.000242085130608,0.0,0.0,0.0,0.0,0.0,0.0,0.0,0.0,0.0
32797323272,1720,32792000000,honey/imu,-3.67820166757e-05,8.16066612325e-05,0.707049666369,0.707163885726,-1.0,-1.0,-1.0,-1.0,-1.0,-1.0,-1.0,-1.0,-1.0,1.16240592817e-05,8.09499788624e-05,1.88193762348e-05,0.0,0.0,0.0,0.0,0.0,0.0,0.0,0.0,0.0,0.000904030385365,-3.26121472967e-05,-0.000382921168809,0.0,0.0,0.0,0.0,0.0,0.0,0.0,0.0,0.0
32807380054,1721,32808000000,honey/imu,-3.7091645816e-05,8.21934054203e-05,0.707049761048,0.707163790978,-1.0,-1.0,-1.0,-1.0,-1.0,-1.0,-1.0,-1.0,-1.0,1.87071407106e-05,8.11188120763e-05,1.76578883726e-05,0.0,0.0,0.0,0.0,0.0,0.0,0.0,0.0,0.0,0.00019257644096,-7.77368135633e-05,-0.000477490111369,0.0,0.0,0.0,0.0,0.0,0.0,0.0,0.0,0.0
32817473789,1722,32824000000,honey/imu,-3.73719121792e-05,8.28004787664e-05,0.707049845967,0.707163705987,-1.0,-1.0,-1.0,-1.0,-1.0,-1.0,-1.0,-1.0,-1.0,2.11631638083e-05,8.06663472461e-05,1.62788625035e-05,0.0,0.0,0.0,0.0,0.0,0.0,0.0,0.0,0.0,-1.54609076645e-05,-8.12828168084e-05,-0.000336914224737,0.0,0.0,0.0,0.0,0.0,0.0,0.0,0.0,0.0
32847758274,1723,32840000000,honey/imu,-3.76712303061e-05,8.33696666245e-05,0.707049922599,0.707163629284,-1.0,-1.0,-1.0,-1.0,-1.0,-1.0,-1.0,-1.0,-1.0,1.83541362327e-05,7.87574786369e-05,1.48097111409e-05,0.0,0.0,0.0,0.0,0.0,0.0,0.0,0.0,0.0,-0.00011471124052,-7.23047210998e-05,-0.000211122696254,0.0,0.0,0.0,0.0,0.0,0.0,0.0,0.0,0.0
32857861340,1724,32856000000,honey/imu,-3.79230354461e-05,8.3963325434e-05,0.707049991907,0.707163559904,-1.0,-1.0,-1.0,-1.0,-1.0,-1.0,-1.0,-1.0,-1.0,2.45713404482e-05,7.66674328196e-05,1.35710276479e-05,0.0,0.0,0.0,0.0,0.0,0.0,0.0,0.0,0.0,-0.000114493991328,-5.90432387161e-05,-0.000170196103773,0.0,0.0,0.0,0.0,0.0,0.0,0.0,0.0,0.0
32878056878,1725,32872000000,honey/imu,-3.81426777603e-05,8.457121813e-05,0.707050055814,0.707163495923,-1.0,-1.0,-1.0,-1.0,-1.0,-1.0,-1.0,-1.0,-1.0,2.69819695969e-05,7.51812193119e-05,1.26596005332e-05,0.0,0.0,0.0,0.0,0.0,0.0,0.0,0.0,0.0,-6.30898977527e-05,-2.47688230273e-05,-8.21322003382e-05,0.0,0.0,0.0,0.0,0.0,0.0,0.0,0.0,0.0
32888164255,1726,32888000000,honey/imu,-3.83922613475e-05,8.51394872226e-05,0.707050119734,0.707163431932,-1.0,-1.0,-1.0,-1.0,-1.0,-1.0,-1.0,-1.0,-1.0,2.18459880764e-05,7.44776407989e-05,1.29210889951e-05,0.0,0.0,0.0,0.0,0.0,0.0,0.0,0.0,0.0,-6.73386153156e-06,4.45794236913e-06,-4.03735405624e-06,0.0,0.0,0.0,0.0,0.0,0.0,0.0,0.0,0.0
32908275433,1727,32904000000,honey/imu,-3.86163865877e-05,8.57201440288e-05,0.707050189475,0.707163362119,-1.0,-1.0,-1.0,-1.0,-1.0,-1.0,-1.0,-1.0,-1.0,2.49110623256e-05,7.31916393102e-05,1.42025353631e-05,0.0,0.0,0.0,0.0,0.0,0.0,0.0,0.0,0.0,-5.90956262996e-05,-3.2275758175e-05,-8.3557375537e-05,0.0,0.0,0.0,0.0,0.0,0.0,0.0,0.0,0.0
32918331341,1728,32920000000,honey/imu,-3.88186808389e-05,8.63091100359e-05,0.707050266928,0.707163284596,-1.0,-1.0,-1.0,-1.0,-1.0,-1.0,-1.0,-1.0,-1.0,2.72611994145e-05,7.19888288095e-05,1.55428209097e-05,0.0,0.0,0.0,0.0,0.0,0.0,0.0,0.0,0.0,-6.28984733372e-05,-3.56102832129e-05,-8.58490119519e-05,0.0,0.0,0.0,0.0,0.0,0.0,0.0,0.0,0.0
32938533664,1729,32936000000,honey/imu,-3.90468985516e-05,8.68500947337e-05,0.707050348772,0.707163202686,-1.0,-1.0,-1.0,-1.0,-1.0,-1.0,-1.0,-1.0,-1.0,2.10315602574e-05,6.97460542297e-05,1.61647671552e-05,0.0,0.0,0.0,0.0,0.0,0.0,0.0,0.0,0.0,-0.000124656068702,-8.25293805367e-05,-0.000150441873851,0.0,0.0,0.0,0.0,0.0,0.0,0.0,0.0,0.0
32958845035,1730,32952000000,honey/imu,-3.92363891131e-05,8.73917613867e-05,0.707050431086,0.707163120308,-1.0,-1.0,-1.0,-1.0,-1.0,-1.0,-1.0,-1.0,-1.0,2.45631304757e-05,6.58925448566e-05,1.59812154751e-05,0.0,0.0,0.0,0.0,0.0,0.0,0.0,0.0,0.0,-0.000215150082024,-0.000157643063043,-0.000266132253928,0.0,0.0,0.0,0.0,0.0,0.0,0.0,0.0,0.0
32968900986,1731,32968000000,honey/imu,-3.93893124347e-05,8.79205261211e-05,0.707050511058,0.707163040275,-1.0,-1.0,-1.0,-1.0,-1.0,-1.0,-1.0,-1.0,-1.0,2.55197309044e-05,6.07698815939e-05,1.51027880605e-05,0.0,0.0,0.0,0.0,0.0,0.0,0.0,0.0,0.0,-0.00025776775649,-0.000189024509195,-0.00032147916097,0.0,0.0,0.0,0.0,0.0,0.0,0.0,0.0,0.0
32989136933,1732,32984000000,honey/imu,-3.95909168338e-05,8.83842766449e-05,0.707050598926,0.707162952352,-1.0,-1.0,-1.0,-1.0,-1.0,-1.0,-1.0,-1.0,-1.0,2.38266074547e-05,5.49374854478e-05,1.35385728438e-05,0.0,0.0,0.0,0.0,0.0,0.0,0.0,0.0,0.0,-0.000275889751076,-0.000254864484815,-3.12232062663e-05,0.0,0.0,0.0,0.0,0.0,0.0,0.0,0.0,0.0
32999419365,1733,33000000000,honey/imu,-3.97645600303e-05,8.88133176199e-05,0.707050680669,0.707162870559,-1.0,-1.0,-1.0,-1.0,-1.0,-1.0,-1.0,-1.0,-1.0,2.7125709649e-05,4.83481456377e-05,1.18795827351e-05,0.0,0.0,0.0,0.0,0.0,0.0,0.0,0.0,0.0,-0.000405807954297,-0.000381287466465,-6.28016831665e-05,0.0,0.0,0.0,0.0,0.0,0.0,0.0,0.0,0.0
33019689106,1734,33016000000,honey/imu,-3.99056211296e-05,8.9200083624e-05,0.707050753968,0.707162797214,-1.0,-1.0,-1.0,-1.0,-1.0,-1.0,-1.0,-1.0,-1.0,2.50293629972e-05,4.16321638523e-05,1.03479120846e-05,0.0,0.0,0.0,0.0,0.0,0.0,0.0,0.0,0.0,-0.000421863517963,-0.000393800941132,-3.22080870667e-05,0.0,0.0,0.0,0.0,0.0,0.0,0.0,0.0,0.0
33039804341,1735,33032000000,honey/imu,-4.00036996997e-05,8.95541322974e-05,0.707050818663,0.707162732479,-1.0,-1.0,-1.0,-1.0,-1.0,-1.0,-1.0,-1.0,-1.0,2.7771303666e-05,3.49480990302e-05,8.8382528314e-06,0.0,0.0,0.0,0.0,0.0,0.0,0.0,0.0,0.0,-0.000413054792271,-0.000396167663844,6.23312066239e-05,0.0,0.0,0.0,0.0,0.0,0.0,0.0,0.0,0.0
33049859263,1736,33048000000,honey/imu,-4.00785528529e-05,8.98575556771e-05,0.70705087719,0.707162673919,-1.0,-1.0,-1.0,-1.0,-1.0,-1.0,-1.0,-1.0,-1.0,2.30782418001e-05,2.85114106184e-05,7.95652428345e-06,0.0,0.0,0.0,0.0,0.0,0.0,0.0,0.0,0.0,-0.000333749504006,-0.000344033234172,0.000406271766889,0.0,0.0,0.0,0.0,0.0,0.0,0.0,0.0,0.0
33070001672,1737,33064000000,honey/imu,-4.015981349e-05,9.01027101694e-05,0.707050942372,0.707162608711,-1.0,-1.0,-1.0,-1.0,-1.0,-1.0,-1.0,-1.0,-1.0,1.22353996643e-05,2.58689773786e-05,1.06040975041e-05,0.0,0.0,0.0,0.0,0.0,0.0,0.0,0.0,0.0,0.000860358545206,0.000599180117465,0.00197797160067,0.0,0.0,0.0,0.0,0.0,0.0,0.0,0.0,0.0
33080134592,1738,33080000000,honey/imu,-4.02446527336e-05,9.03262438974e-05,0.707051022151,0.707162528911,-1.0,-1.0,-1.0,-1.0,-1.0,-1.0,-1.0,-1.0,-1.0,6.00364020277e-06,2.74082612884e-05,1.50375501622e-05,0.0,0.0,0.0,0.0,0.0,0.0,0.0,0.0,0.0,0.00163639905929,0.00151590745615,0.000256792899961,0.0,0.0,0.0,0.0,0.0,0.0,0.0,0.0,0.0
33100442342,1739,33096000000,honey/imu,-4.03063117033e-05,9.05541582394e-05,0.70705110775,0.707162443294,-1.0,-1.0,-1.0,-1.0,-1.0,-1.0,-1.0,-1.0,-1.0,7.94694804766e-06,2.66979524754e-05,1.62861367646e-05,0.0,0.0,0.0,0.0,0.0,0.0,0.0,0.0,0.0,0.000198314520342,0.000204653545305,-0.000224631941553,0.0,0.0,0.0,0.0,0.0,0.0,0.0,0.0,0.0
33110500065,1740,33112000000,honey/imu,-4.04008641437e-05,9.07348385238e-05,0.707051201424,0.707162349606,-1.0,-1.0,-1.0,-1.0,-1.0,-1.0,-1.0,-1.0,-1.0,1.1011922115e-06,2.57054101797e-05,1.80613614973e-05,0.0,0.0,0.0,0.0,0.0,0.0,0.0,0.0,0.0,0.000103549156562,7.8451418625e-05,-0.000184388047275,0.0,0.0,0.0,0.0,0.0,0.0,0.0,0.0,0.0
33140673490,1741,33128000000,honey/imu,-4.04694174392e-05,9.09234890032e-05,0.707051304532,0.707162246486,-1.0,-1.0,-1.0,-1.0,-1.0,-1.0,-1.0,-1.0,-1.0,3.95063184581e-06,2.40443063732e-05,2.00212410204e-05,0.0,0.0,0.0,0.0,0.0,0.0,0.0,0.0,0.0,-1.43700343389e-05,1.71914985905e-05,-0.000210128454028,0.0,0.0,0.0,0.0,0.0,0.0,0.0,0.0,0.0
33150767047,1742,33152000000,honey/imu,-4.05274992033e-05,9.11973374694e-05,0.707051476954,0.707162074052,-1.0,-1.0,-1.0,-1.0,-1.0,-1.0,-1.0,-1.0,-1.0,1.24387956048e-05,1.74554616214e-05,2.01699837993e-05,0.0,0.0,0.0,0.0,0.0,0.0,0.0,0.0,0.0,-0.000905955098091,-0.000564365391912,-0.00195809810255,0.0,0.0,0.0,0.0,0.0,0.0,0.0,0.0,0.0
33160826959,1743,33160000000,honey/imu,-4.05887093224e-05,9.12545538052e-05,0.707051543132,0.707162007874,-1.0,-1.0,-1.0,-1.0,-1.0,-1.0,-1.0,-1.0,-1.0,-7.09824317914e-07,2.09358202346e-05,2.33965252232e-05,0.0,0.0,0.0,0.0,0.0,0.0,0.0,0.0,0.0,0.00260636745649,0.00167746546662,0.00518169586165,0.0,0.0,0.0,0.0,0.0,0.0,0.0,0.0,0.0
33191040113,1744,33176000000,honey/imu,-4.06398274425e-05,9.14099758694e-05,0.707051670742,0.707161880261,-1.0,-1.0,-1.0,-1.0,-1.0,-1.0,-1.0,-1.0,-1.0,2.68132553504e-06,2.02953943094e-05,2.39185496725e-05,0.0,0.0,0.0,0.0,0.0,0.0,0.0,0.0,0.0,-1.77485097104e-05,2.74899574755e-06,-0.000108562672907,0.0,0.0,0.0,0.0,0.0,0.0,0.0,0.0,0.0
33191040113,1745,33192000000,honey/imu,-4.06690106329e-05,9.15844126893e-05,0.707051796815,0.707161754183,-1.0,-1.0,-1.0,-1.0,-1.0,-1.0,-1.0,-1.0,-1.0,5.82395527548e-06,2.00532749854e-05,2.35530156805e-05,0.0,0.0,0.0,0.0,0.0,0.0,0.0,0.0,0.0,-7.06565321162e-05,-3.54067682693e-05,-0.000142277816295,0.0,0.0,0.0,0.0,0.0,0.0,0.0,0.0,0.0
33211190681,1746,33208000000,honey/imu,-4.07241762881e-05,9.17279188609e-05,0.707051921219,0.707161629777,-1.0,-1.0,-1.0,-1.0,-1.0,-1.0,-1.0,-1.0,-1.0,1.8112929187e-06,1.95724159324e-05,2.33569133357e-05,0.0,0.0,0.0,0.0,0.0,0.0,0.0,0.0,0.0,-0.000154812591257,-9.96971476671e-05,-0.000284542338255,0.0,0.0,0.0,0.0,0.0,0.0,0.0,0.0,0.0
33231351018,1747,33224000000,honey/imu,-4.07365024363e-05,9.19050060401e-05,0.707052046451,0.70716150454,-1.0,-1.0,-1.0,-1.0,-1.0,-1.0,-1.0,-1.0,-1.0,8.76031973428e-06,1.86297398489e-05,2.36022483456e-05,0.0,0.0,0.0,0.0,0.0,0.0,0.0,0.0,0.0,-0.000268212391482,-0.000191727186443,-0.000439812189257,0.0,0.0,0.0,0.0,0.0,0.0,0.0,0.0,0.0
33241408809,1748,33240000000,honey/imu,-4.07212121622e-05,9.21014752039e-05,0.70705217395,0.707161377036,-1.0,-1.0,-1.0,-1.0,-1.0,-1.0,-1.0,-1.0,-1.0,1.0310175838e-05,1.77001299176e-05,2.3877091429e-05,0.0,0.0,0.0,0.0,0.0,0.0,0.0,0.0,0.0,-0.000247190072223,-0.000177992722186,-0.00039369405693,0.0,0.0,0.0,0.0,0.0,0.0,0.0,0.0,0.0
33261520177,1749,33256000000,honey/imu,-4.07478447121e-05,9.2255841462e-05,0.707052309792,0.707161241194,-1.0,-1.0,-1.0,-1.0,-1.0,-1.0,-1.0,-1.0,-1.0,5.75727970138e-06,1.6621002743e-05,2.48269020788e-05,0.0,0.0,0.0,0.0,0.0,0.0,0.0,0.0,0.0,-0.000177277163132,-0.000120860110383,-0.000304077714023,0.0,0.0,0.0,0.0,0.0,0.0,0.0,0.0,0.0
33271578884,1750,33272000000,honey/imu,-4.0829722702e-05,9.23822410797e-05,0.707052468524,0.707161082464,-1.0,-1.0,-1.0,-1.0,-1.0,-1.0,-1.0,-1.0,-1.0,1.09655163321e-05,1.4303039577e-05,2.60334434858e-05,0.0,0.0,0.0,0.0,0.0,0.0,0.0,0.0,0.0,-0.000343248764787,-0.000271004252585,-0.000206070612806,0.0,0.0,0.0,0.0,0.0,0.0,0.0,0.0,0.0
33291692126,1751,33288000000,honey/imu,-4.08702971456e-05,9.25161893678e-05,0.707052639009,0.707160911986,-1.0,-1.0,-1.0,-1.0,-1.0,-1.0,-1.0,-1.0,-1.0,1.56631742726e-05,1.12468019986e-05,2.85003682048e-05,0.0,0.0,0.0,0.0,0.0,0.0,0.0,0.0,0.0,-0.000364995704927,-0.00028718404009,-0.000229881185991,0.0,0.0,0.0,0.0,0.0,0.0,0.0,0.0,0.0
